t0_Ax,t0_Ay,t0_Az,t0_gyro_x,t0_gyro_y,t0_gyro_z,t1_Ax,t1_Ay,t1_Az,t1_gyro_x,t1_gyro_y,t1_gyro_z,t2_Ax,t2_Ay,t2_Az,t2_gyro_x,t2_gyro_y,t2_gyro_z,t3_Ax,t3_Ay,t3_Az,t3_gyro_x,t3_gyro_y,t3_gyro_z,t4_Ax,t4_Ay,t4_Az,t4_gyro_x,t4_gyro_y,t4_gyro_z,t5_Ax,t5_Ay,t5_Az,t5_gyro_x,t5_gyro_y,t5_gyro_z,t6_Ax,t6_Ay,t6_Az,t6_gyro_x,t6_gyro_y,t6_gyro_z,t7_Ax,t7_Ay,t7_Az,t7_gyro_x,t7_gyro_y,t7_gyro_z,t8_Ax,t8_Ay,t8_Az,t8_gyro_x,t8_gyro_y,t8_gyro_z,t9_Ax,t9_Ay,t9_Az,t9_gyro_x,t9_gyro_y,t9_gyro_z,t10_Ax,t10_Ay,t10_Az,t10_gyro_x,t10_gyro_y,t10_gyro_z,t11_Ax,t11_Ay,t11_Az,t11_gyro_x,t11_gyro_y,t11_gyro_z,t12_Ax,t12_Ay,t12_Az,t12_gyro_x,t12_gyro_y,t12_gyro_z,t13_Ax,t13_Ay,t13_Az,t13_gyro_x,t13_gyro_y,t13_gyro_z,t14_Ax,t14_Ay,t14_Az,t14_gyro_x,t14_gyro_y,t14_gyro_z,t15_Ax,t15_Ay,t15_Az,t15_gyro_x,t15_gyro_y,t15_gyro_z,t16_Ax,t16_Ay,t16_Az,t16_gyro_x,t16_gyro_y,t16_gyro_z,t17_Ax,t17_Ay,t17_Az,t17_gyro_x,t17_gyro_y,t17_gyro_z,t18_Ax,t18_Ay,t18_Az,t18_gyro_x,t18_gyro_y,t18_gyro_z,t19_Ax,t19_Ay,t19_Az,t19_gyro_x,t19_gyro_y,t19_gyro_z,t20_Ax,t20_Ay,t20_Az,t20_gyro_x,t20_gyro_y,t20_gyro_z,t21_Ax,t21_Ay,t21_Az,t21_gyro_x,t21_gyro_y,t21_gyro_z,t22_Ax,t22_Ay,t22_Az,t22_gyro_x,t22_gyro_y,t22_gyro_z,t23_Ax,t23_Ay,t23_Az,t23_gyro_x,t23_gyro_y,t23_gyro_z,t24_Ax,t24_Ay,t24_Az,t24_gyro_x,t24_gyro_y,t24_gyro_z,t25_Ax,t25_Ay,t25_Az,t25_gyro_x,t25_gyro_y,t25_gyro_z,t26_Ax,t26_Ay,t26_Az,t26_gyro_x,t26_gyro_y,t26_gyro_z,t27_Ax,t27_Ay,t27_Az,t27_gyro_x,t27_gyro_y,t27_gyro_z,t28_Ax,t28_Ay,t28_Az,t28_gyro_x,t28_gyro_y,t28_gyro_z,t29_Ax,t29_Ay,t29_Az,t29_gyro_x,t29_gyro_y,t29_gyro_z
399,-848,305,301,-946,78,396,-858,118,274,-756,119,405,-885,5,159,-479,106,418,-890,-74,-31,-41,12,428,-889,-68,-240,356,-67,433,-872,40,-401,685,-104,446,-869,156,-551,771,-161,469,-882,250,-570,832,-147,484,-901,323,-573,783,-198,480,-900,350,-519,730,-245,470,-867,398,-491,650,-271,462,-814,436,-458,578,-263,446,-726,529,-415,494,-147,372,-671,642,-512,376,-80,232,-844,873,-496,18,72,69,-1157,1003,-87,-567,192,-149,-1607,988,622,-1652,222,-347,-1856,797,1395,-2716,-54,-511,-1890,423,2027,-3925,-544,-552,-1751,-5,2491,-4297,-975,-503,-1337,-278,2449,-4089,-1098,-446,-1111,-452,2537,-3440,-845,-423,-882,-774,2420,-2683,-367,-401,-860,-1142,1979,-1311,283,-476,-1057,-1320,1031,557,691,-750,-1760,-1134,-438,2655,554,-1052,-2418,-728,-903,3898,-133,-1362,-2819,-361,-1787,4645,-1649,-1315,-3019,-196,-2334,4858,-2804,-1058,-3263,-88,-3192,4668,-4039
603,-694,289,-157,-10,82,599,-703,229,-196,-38,139,596,-794,216,-243,61,150,575,-838,217,-186,117,166,571,-888,211,-171,129,132,576,-867,206,-134,127,80,574,-844,221,-156,119,50,580,-832,244,-124,114,33,594,-815,273,-90,106,11,615,-795,329,-62,136,22,618,-731,437,-70,192,-6,544,-700,556,-154,203,-70,307,-833,758,-195,-12,-113,55,-1196,943,170,-751,-67,-189,-1526,845,866,-1962,-285,-358,-1716,521,1835,-3333,-514,-543,-1710,136,2358,-4242,-637,-595,-1460,-367,2050,-4713,-642,-583,-1158,-588,1771,-4051,-529,-604,-949,-740,1758,-3281,-190,-668,-837,-884,1666,-2462,94,-704,-892,-1125,1648,-1256,478,-795,-1144,-1336,1159,331,668,-911,-1784,-1370,137,2307,362,-1172,-2284,-1099,-352,3689,-353,-1363,-2602,-690,-1539,4576,-1612,-1194,-2773,-336,-2355,4780,-2687,-925,-2812,-151,-2954,4558,-3603,-735,-2651,235,-2967,3956,-3934,-777,-2271,706,-2635,3072,-3938
656,-864,44,-65,184,-339,653,-813,49,-62,154,-383,653,-774,70,-65,94,-359,666,-732,68,-30,109,-315,674,-690,103,-99,58,-300,719,-649,154,-89,116,-227,753,-585,241,-89,157,-175,715,-542,400,-164,205,-174,509,-545,649,-234,-97,-354,277,-676,757,53,-809,-277,101,-1017,661,732,-1919,-65,-62,-1289,372,1432,-3145,108,-276,-1417,-2,1942,-4017,121,-373,-1371,-398,1676,-4405,101,-448,-1316,-546,1209,-3888,-71,-599,-1317,-679,1191,-3485,-198,-705,-1149,-955,1306,-2156,-115,-844,-1075,-1154,934,-514,-60,-1030,-1294,-1279,178,1388,-34,-1143,-1668,-1259,-360,3021,-121,-1291,-2164,-1063,-1196,4199,-624,-1203,-2647,-946,-2304,4822,-1580,-1022,-3055,-705,-3096,5129,-2757,-782,-3128,-386,-3303,4777,-3634,-888,-2960,190,-3173,4186,-3988,-1148,-2356,921,-2258,3060,-3803,-1093,-1582,1077,-909,1687,-3056,-772,-785,863,48,520,-2203,-451,-214,691,330,48,-1665,-205,201,649,307,-39,-1070
546,-742,211,-140,242,-193,577,-745,235,-80,172,-115,589,-728,265,12,178,-13,601,-714,297,29,134,68,599,-730,335,56,106,143,600,-711,391,94,97,247,538,-726,541,5,44,297,376,-891,804,-64,-257,230,150,-1141,975,196,-1048,68,-73,-1321,861,747,-1996,71,-218,-1391,514,1188,-3102,-85,-223,-1332,-13,1255,-3575,-433,-162,-1106,-473,1325,-3119,-467,-75,-869,-905,1334,-2436,-317,-12,-691,-1311,1150,-1348,-24,31,-778,-1670,518,206,220,-94,-1200,-1706,-272,1574,210,-421,-1728,-1525,-1139,2999,-159,-768,-2074,-1201,-1962,3901,-722,-915,-2320,-937,-2707,4322,-1230,-891,-2507,-756,-3133,4364,-1654,-745,-2422,-556,-3328,4026,-1902,-703,-2264,-285,-3214,3749,-1757,-692,-2048,204,-2586,3334,-1383,-595,-1737,559,-1837,2503,-1107,-456,-1379,722,-1116,1613,-664,-261,-1126,839,-609,983,-258,-18,-938,841,-227,484,-11,278,-799,705,30,89,157,420,-764,606,173,1,278
645,-755,31,83,7,125,633,-794,68,129,66,215,618,-821,89,202,88,255,594,-840,115,219,-10,229,582,-850,120,257,-144,228,581,-840,126,230,-282,143,577,-836,114,235,-320,112,557,-836,108,215,-313,84,538,-833,89,196,-317,46,514,-827,74,195,-246,64,528,-801,94,152,-146,67,532,-795,169,86,-8,99,481,-836,325,30,24,149,353,-968,514,1,-306,0,241,-1142,557,427,-1172,-75,122,-1182,395,832,-2222,-133,48,-1183,41,1209,-3086,-146,38,-1114,-454,1447,-3185,-197,172,-1010,-1058,1124,-2012,-114,169,-1047,-1414,579,-293,-116,27,-1280,-1568,-407,1705,-329,-166,-1588,-1401,-1334,3213,-721,-397,-1888,-1055,-2354,4233,-1516,-402,-2029,-654,-2765,4396,-2057,-449,-2124,-188,-2682,4182,-2235,-421,-1897,246,-1941,3385,-2159,-462,-1508,578,-1306,2490,-2045,-402,-1072,771,-574,1453,-1531,-248,-756,820,-151,616,-946,24,-559,783,279,-34,-221
416,-943,-81,95,-141,-81,460,-911,-101,34,-27,-115,485,-895,-71,-31,108,-97,510,-905,-24,-93,212,-84,506,-900,19,-124,255,-116,493,-876,87,-147,231,-145,509,-849,170,-138,198,-114,549,-810,275,-142,139,-127,543,-758,377,-209,68,-229,468,-754,447,-252,28,-303,312,-831,484,-340,-136,-399,71,-965,513,-112,-585,-205,-193,-1029,419,48,-1704,-286,-387,-1153,68,557,-3054,-190,-621,-1179,-331,905,-4111,-153,-727,-1179,-624,768,-4716,-272,-667,-1124,-790,802,-4313,-235,-704,-1062,-891,1183,-3241,-94,-775,-1036,-1106,1725,-1914,81,-745,-1041,-1402,1824,-208,-45,-909,-1190,-1474,1535,2183,-556,-1285,-1465,-1442,870,3615,-1337,-1708,-1672,-1363,-114,4537,-1987,-1650,-1650,-1121,-785,5020,-2132,-1374,-1497,-666,-978,4540,-1805,-1155,-1331,-366,-826,3452,-1279,-906,-1214,-79,-400,2220,-513,-723,-1096,25,-382,1002,-30,-553,-1070,124,184,153,383,-270,-998,133,135,-562,355
270,-953,-19,-50,-144,39,305,-972,-7,-71,-26,50,321,-980,18,-100,82,34,325,-988,51,-123,166,-6,318,-993,92,-106,224,-23,300,-994,155,-93,293,-32,269,-1006,272,-52,287,-15,252,-1033,397,-18,224,-7,196,-1159,595,30,108,-7,68,-1351,823,218,-191,-78,-166,-1634,916,673,-909,-220,-422,-1782,797,1124,-1818,-541,-661,-1743,474,1590,-2892,-922,-812,-1573,34,1941,-3666,-1073,-773,-1260,-467,2048,-3836,-935,-551,-853,-853,1780,-3165,-601,-193,-612,-1297,1586,-2123,-160,154,-490,-1611,1082,-598,61,354,-653,-1712,273,921,-50,382,-1074,-1543,-763,2400,-574,357,-1449,-1329,-1491,3247,-1141,154,-1785,-978,-1876,3844,-1591,0,-2001,-612,-1932,3862,-1993,-139,-2079,-259,-1867,3588,-2436,-363,-2012,135,-1562,3228,-2554,-615,-1711,559,-1202,2543,-2549,-781,-1336,916,-741,1692,-2177,-718,-946,1012,-297,788,-1662,-476,-620,957,69,15,-909,-202,-454,868,310,-498,-299
452,-902,-22,-58,-82,-38,468,-898,-17,-70,-8,-23,478,-900,1,-105,39,-47,481,-897,26,-89,102,-32,481,-900,68,-90,127,-23,499,-914,139,-51,159,-7,496,-889,228,-25,177,-58,357,-911,375,-61,157,-167,144,-1084,569,-35,-136,-205,-119,-1425,677,508,-1230,-268,-344,-1545,398,1325,-2808,-288,-546,-1458,-136,1787,-4061,-370,-443,-1238,-705,1746,-4250,-431,-370,-1061,-1000,1689,-3203,-253,-217,-978,-1380,1263,-1894,-267,-177,-1108,-1618,422,438,-272,-369,-1312,-1597,-556,2534,-539,-618,-1604,-1190,-1648,3922,-856,-811,-1825,-656,-2150,4575,-1225,-874,-1813,8,-1985,3963,-1390,-706,-1544,409,-1352,2700,-1184,-481,-1259,638,-898,1665,-920,-202,-1003,697,-435,749,-605,35,-837,654,-140,154,-350,248,-743,546,99,-281,-91,383,-706,446,241,-494,103,493,-705,338,301,-632,233,572,-732,266,341,-700,325,650,-768,187,400,-773,383,710,-815,110,438,-728,409
425,-1126,399,230,39,47,292,-1135,426,453,-515,-239,175,-1042,323,656,-989,-439,95,-873,174,744,-1355,-459,118,-762,18,646,-1496,-270,207,-707,-82,618,-1320,32,252,-714,-122,380,-1261,141,302,-817,-91,254,-1173,342,276,-972,-23,192,-1360,334,260,-1079,-88,192,-1978,128,334,-1076,-284,417,-2027,85,292,-988,-355,350,-2004,-35,290,-965,-468,331,-1924,-48,351,-954,-611,630,-925,59,339,-892,-579,383,-405,97,289,-930,-542,125,-585,-18,203,-910,-715,545,-80,277,69,-988,-1030,503,650,411,-181,-1393,-1478,183,2271,186,-655,-2003,-1843,-398,3668,-779,-1180,-2553,-1726,-1495,4567,-2278,-1225,-2824,-1302,-1801,5002,-3093,-1185,-2881,-768,-1752,4674,-3697,-1313,-2635,-115,-1483,3910,-3861,-1296,-1987,472,-649,2512,-3300,-971,-1168,612,174,1049,-2399,-586,-563,581,612,161,-1552,-274,-152,586,707,-235,-555,1,-31,609,679,-484,303,251,-40,592,775,-764,1044
68,-939,-647,-10,-1481,-77,164,-926,-736,29,-1143,-25,191,-904,-732,133,-812,49,228,-905,-703,122,-642,82,266,-904,-664,108,-423,113,282,-913,-581,18,-203,149,284,-944,-486,-45,-67,145,251,-978,-365,-16,-33,76,205,-979,-289,110,-127,22,129,-972,-249,257,-400,60,67,-959,-294,359,-768,105,-3,-924,-461,405,-966,168,-161,-928,-629,723,-733,462,-267,-1036,-951,939,-76,625,-513,-1337,-1294,894,1594,196,-936,-1778,-1490,643,3243,-664,-1392,-2283,-1636,-319,4325,-2137,-1514,-2633,-1473,-1108,4898,-3516,-1451,-2628,-1000,-1567,5043,-4446,-1467,-2490,-418,-1646,4473,-4442,-1569,-2064,396,-939,3214,-3547,-1294,-1411,614,-40,1537,-2435,-768,-760,529,427,163,-1465,-326,-328,479,578,-292,-737,15,-79,537,526,-358,-110,198,6,620,456,-375,358,327,40,648,537,-588,735,482,24,535,600,-984,1061,698,-133,339,701,-1059,1498,898,-357,198,724,-852,1724
659,-780,-47,-143,-81,8,680,-772,-6,-133,-126,39,666,-755,44,-108,-194,8,615,-745,99,-76,-292,30,539,-749,172,6,-476,103,440,-771,181,149,-776,179,361,-833,108,209,-1110,254,300,-913,-5,256,-1397,149,211,-921,-148,418,-1527,230,165,-968,-293,368,-1599,219,141,-994,-410,440,-1602,258,109,-992,-500,361,-1351,246,78,-1002,-521,84,-1263,122,83,-994,-566,18,-1048,77,92,-965,-610,30,-833,72,104,-943,-692,32,-560,61,110,-949,-837,105,-157,117,117,-996,-969,231,513,264,143,-1189,-1150,242,1344,156,95,-1357,-1224,269,2092,-131,-21,-1503,-1197,-163,2722,-830,-112,-1588,-1040,-736,2960,-1441,-105,-1583,-823,-1227,3049,-1926,-35,-1534,-606,-1600,2918,-2214,-4,-1426,-345,-1874,2744,-2364,-32,-1354,-80,-1866,2614,-2254,-169,-1197,373,-1422,2561,-2100,-171,-923,712,-995,1745,-2107,-16,-484,744,-483,853,-1680,169,-165,719,-221,455,-1114
367,-908,-316,37,-654,-29,394,-912,-300,83,-497,60,409,-926,-287,75,-431,86,393,-929,-267,38,-425,77,394,-932,-275,43,-397,79,382,-929,-263,-13,-314,72,373,-936,-239,-4,-245,98,370,-952,-234,-12,-188,72,366,-958,-231,-30,-153,26,362,-945,-251,4,-90,9,370,-937,-309,14,-2,-6,405,-965,-440,42,143,29,482,-1067,-687,94,580,34,521,-1228,-922,10,1174,-139,412,-1347,-995,-250,1917,-518,249,-1378,-876,-678,2392,-975,62,-1323,-513,-1133,2515,-1294,9,-1214,-168,-1205,2211,-1351,79,-1086,124,-1203,1734,-1291,167,-998,335,-1033,1352,-1154,248,-842,484,-718,975,-981,325,-675,535,-402,664,-744,461,-544,477,-110,350,-508,593,-436,382,53,181,-279,706,-408,298,181,89,-111,792,-398,226,159,-6,-45,849,-412,185,205,-25,46,867,-427,176,195,-35,80,856,-442,180,198,-62,108,851,-453,182,237,-133,152
273,-975,-194,-103,-826,208,279,-974,-229,-78,-787,150,283,-991,-265,4,-659,186,255,-984,-293,32,-507,163,245,-987,-313,-15,-431,106,244,-986,-318,4,-291,108,242,-986,-297,-5,-220,93,241,-995,-287,0,-148,77,227,-990,-279,9,-90,51,206,-977,-304,54,-64,75,141,-1003,-450,195,-114,302,138,-1181,-851,457,129,651,155,-1532,-1785,517,2050,105,-425,-1946,-2052,-317,3536,-1524,-1044,-2013,-1044,-1105,4164,-2497,-1222,-1762,-114,-744,3061,-1991,-938,-1333,301,-291,1605,-1282,-448,-969,333,-1,744,-770,33,-763,303,68,282,-419,293,-663,294,105,199,-274,480,-607,293,86,72,-170,602,-588,280,182,71,-6,686,-610,254,198,-33,35,747,-625,193,231,-54,65,772,-641,175,174,-55,32,776,-641,170,208,-19,64,766,-645,184,172,-20,57,765,-640,185,178,-23,44,761,-639,187,136,0,8,755,-641,211,157,93,-9,738,-626,254,130,68,-13
494,-896,-121,-232,42,-100,499,-887,-113,-225,114,-80,493,-889,-83,-227,138,-69,488,-887,-46,-148,90,-55,499,-886,-22,-88,15,-38,541,-898,19,-42,-37,-33,579,-924,117,-8,-17,-52,492,-983,274,16,-61,-217,299,-1046,431,158,-408,-431,101,-1100,407,494,-1109,-506,-80,-1123,199,960,-2119,-417,-222,-1071,-111,1117,-2872,-372,-199,-1000,-447,780,-3011,-506,-173,-951,-590,462,-2805,-630,-145,-952,-785,808,-2557,-508,-178,-895,-1011,981,-2393,-399,-162,-931,-1238,597,-1658,-209,-179,-985,-1491,625,-279,76,-324,-1173,-1636,404,1648,207,-503,-1432,-1697,0,3198,163,-691,-1895,-1438,-694,4292,-567,-751,-2217,-1158,-1427,4861,-1756,-728,-2355,-836,-1839,4790,-2665,-749,-2285,-352,-1959,4213,-3254,-871,-2060,182,-1769,3501,-3374,-939,-1528,741,-986,2521,-2865,-762,-930,857,-262,1298,-2103,-423,-374,769,122,361,-1347,-112,-52,711,283,21,-719,137,125,678,342,-165,-147
323,-979,36,-30,280,31,300,-988,86,-7,245,7,286,-984,121,38,139,-12,294,-971,106,42,4,-50,310,-953,91,43,-55,-59,323,-943,83,24,-46,-72,317,-942,140,19,8,-6,251,-1001,274,21,-25,75,113,-1097,442,50,-464,-15,13,-1179,473,240,-1151,-83,-43,-1287,381,613,-1756,-112,-96,-1310,188,759,-2427,-315,-36,-1239,-71,922,-2614,-465,0,-1114,-295,998,-2493,-543,154,-973,-701,970,-2016,-562,281,-901,-1123,534,-743,-525,341,-1058,-1440,-128,659,-533,230,-1380,-1413,-929,2040,-603,-33,-1603,-1165,-1560,3043,-999,-302,-1732,-759,-1971,3768,-1304,-436,-1784,-455,-1894,3958,-1540,-431,-1722,-124,-1833,3629,-1990,-401,-1527,192,-1526,3093,-2080,-442,-1343,499,-1242,2477,-1952,-448,-1092,771,-874,1672,-1620,-325,-847,894,-531,898,-1167,-52,-647,864,-177,222,-623,227,-536,739,22,-166,-286,419,-470,644,140,-325,-76,522,-452,597,197,-474,9
444,-904,-585,-373,448,-79,450,-881,-503,-684,759,-108,459,-849,-346,-947,901,-90,467,-903,-173,-888,946,141,489,-956,-37,-840,798,154,511,-958,31,-625,671,158,504,-930,107,-477,519,121,517,-963,188,-272,377,163,518,-986,318,-93,168,45,477,-995,416,59,-143,-73,346,-1055,473,324,-623,-127,210,-1138,342,739,-1302,-127,104,-1205,101,952,-2007,-394,18,-1228,-89,1088,-2585,-727,-7,-1050,-352,1058,-2786,-687,-44,-972,-499,1150,-2655,-322,-27,-932,-819,1109,-2122,-96,-44,-895,-1110,610,-1144,-85,-91,-1024,-1492,381,890,81,-219,-1222,-1587,-179,2709,-24,-331,-1548,-1509,-948,3860,-517,-363,-1974,-1273,-1654,4537,-1291,-269,-2291,-1012,-1921,4696,-2106,-222,-2358,-643,-1979,4272,-2888,-319,-2192,-264,-1926,3679,-3088,-585,-1906,303,-1530,2891,-2829,-668,-1453,674,-820,1912,-2310,-485,-891,743,-211,755,-1677,-170,-473,685,42,115,-1075,139,-204,639,164,-132,-513
611,-817,-140,-156,21,-41,634,-822,-139,-153,23,-46,647,-823,-99,-141,46,-47,645,-829,-67,-78,63,-40,652,-834,-14,-48,78,-58,661,-864,66,-9,134,-25,616,-949,219,88,136,-25,533,-1134,352,365,-93,-36,429,-1313,433,893,-666,-109,304,-1467,345,1463,-1375,-80,153,-1435,166,1866,-2062,-265,37,-1339,-35,2063,-2525,-355,17,-1172,-263,2083,-2553,-424,25,-1031,-430,1871,-2478,-422,131,-958,-725,1735,-2161,-254,277,-823,-1122,1280,-1219,-127,385,-844,-1350,700,291,-72,395,-1111,-1368,-344,1898,-379,272,-1483,-1253,-1310,2997,-1068,65,-1882,-962,-2072,3631,-1880,-107,-2048,-644,-2430,3770,-2452,-151,-2173,-346,-2586,3668,-2867,-252,-2234,-20,-2338,3412,-3079,-503,-2024,427,-1925,2918,-3313,-723,-1609,877,-1242,2180,-2963,-660,-1039,1046,-409,1085,-2129,-387,-571,987,185,242,-1213,-95,-296,882,377,-247,-680,149,-127,803,377,-475,-245,343,-76,750,379,-607,143
524,-765,89,-137,601,-722,574,-679,119,-222,312,-489,579,-621,200,-305,237,-237,592,-668,237,-338,115,-12,596,-724,248,-307,58,63,586,-740,294,-271,-23,39,531,-726,393,-171,-174,85,319,-853,539,-111,-510,81,45,-1137,570,248,-1480,12,-177,-1276,259,847,-2747,-60,-296,-1128,-269,1183,-3538,-138,-359,-1128,-562,908,-3700,-116,-469,-1117,-786,637,-3577,-258,-536,-1055,-1101,1032,-3215,-76,-442,-860,-1657,1408,-1512,254,-545,-854,-1976,1080,889,296,-770,-1107,-1993,374,2978,31,-1058,-1449,-1723,-353,4091,-472,-1085,-1575,-1305,-787,4543,-805,-1037,-1587,-904,-845,4452,-911,-987,-1550,-325,-727,3668,-967,-699,-1299,66,-496,2477,-925,-372,-1047,310,-361,1676,-816,-71,-905,508,-228,1136,-679,123,-807,583,-92,744,-620,279,-697,562,93,386,-494,407,-623,498,238,118,-349,517,-565,417,339,-60,-161,589,-540,355,405,-227,1,641,-545,296,412,-399,61
544,-832,-134,-218,26,-66,560,-818,-127,-198,34,-18,575,-834,-105,-198,29,11,585,-866,-94,-174,23,-17,578,-863,-80,-118,16,-38,594,-847,-58,-77,14,-47,640,-853,1,-25,92,6,652,-914,101,-10,301,45,434,-1096,327,45,485,19,163,-1490,528,508,105,201,-184,-1816,466,1475,-1227,104,-335,-1867,86,2265,-2652,-178,-379,-1722,-308,2800,-3432,-387,-397,-1455,-513,2689,-3734,-543,-365,-1213,-672,2560,-3520,-433,-165,-1044,-1003,2373,-2992,-238,87,-943,-1364,1654,-1382,-188,258,-1058,-1574,417,572,-310,188,-1609,-1461,-1241,2516,-611,-39,-1925,-1113,-1760,3908,-1170,-418,-2121,-656,-1887,4504,-1960,-628,-2092,-189,-1612,4235,-2667,-675,-1931,214,-1336,3605,-3150,-711,-1614,529,-941,2839,-3252,-781,-1257,770,-582,2127,-3048,-780,-818,939,-148,1323,-2448,-617,-433,1003,166,571,-1641,-306,-148,938,319,-124,-745,-46,-33,859,273,-446,-249,124,-11,843,114,-689,39
668,-773,9,-108,-40,53,674,-773,32,-146,-82,20,689,-753,54,-104,-101,30,697,-738,107,-76,-130,32,690,-707,139,-16,-181,-19,664,-693,161,18,-197,-25,633,-689,198,99,-168,47,526,-725,246,92,-119,153,321,-929,353,63,-368,331,122,-1231,396,510,-1192,427,-55,-1356,142,1184,-2540,423,-58,-1344,-255,1405,-3230,303,-105,-1166,-431,1327,-3062,124,-223,-1132,-613,1566,-2952,243,-189,-1032,-991,1711,-2307,370,-103,-1038,-1340,1239,-603,312,-410,-1164,-1558,467,2023,-18,-900,-1479,-1523,-572,3631,-465,-1300,-1664,-1137,-897,4465,-696,-1339,-1552,-677,-872,4219,-746,-1168,-1407,-426,-699,3436,-499,-966,-1380,-134,-607,2626,-275,-804,-1337,113,-444,1869,-279,-609,-1240,340,-239,1129,-329,-407,-1140,412,1,536,-331,-207,-1015,433,161,63,-363,-42,-950,369,286,-221,-303,76,-898,325,339,-389,-222,174,-903,257,415,-492,-76,251,-917,205,392,-590,-50
-278,-1670,560,1608,-1946,-104,-391,-1491,257,2154,-2693,-158,-408,-1291,13,2245,-3195,-30,-285,-1119,-270,2186,-3089,9,-141,-917,-410,1846,-2701,38,46,-845,-488,1521,-2172,113,251,-783,-512,1182,-1697,194,423,-778,-480,930,-1268,309,555,-810,-413,608,-1044,344,667,-880,-453,403,-881,270,648,-926,-516,267,-545,180,604,-1070,-672,-3,-27,-59,594,-1348,-920,-512,1108,-548,575,-1560,-988,-1120,2275,-1112,344,-2055,-925,-2214,3412,-2210,1,-2358,-625,-2849,3914,-3459,-328,-2547,-249,-3294,3967,-4439,-719,-2668,358,-2910,3786,-4709,-1175,-2369,963,-1850,2965,-4600,-1194,-1503,1122,-513,1482,-3656,-913,-713,997,297,566,-2632,-566,-114,880,386,-228,-1753,-296,129,823,363,-427,-797,-46,163,816,183,-549,-39,150,131,817,139,-572,393,328,108,810,169,-585,683,475,77,769,152,-621,736,572,31,740,129,-547,787,613,-5,703,138,-556,792,562,-70,700,148,-575,897
530,-1364,530,309,224,-482,402,-1357,556,789,-164,-782,327,-1265,420,1194,-571,-1004,319,-1152,305,1372,-710,-1105,333,-1020,251,1536,-769,-1039,366,-906,221,1654,-813,-965,377,-800,209,1761,-932,-886,337,-705,124,1870,-1209,-831,256,-610,7,1959,-1561,-812,224,-431,-293,2031,-1963,-636,286,-210,-707,1818,-2108,-426,362,-13,-990,1602,-1473,74,339,28,-1091,1429,-787,641,278,-55,-1019,1213,15,1207,98,-246,-813,1031,767,1888,-86,-694,-705,685,1323,2583,-285,-1200,-719,189,2440,2705,-704,-2108,-470,-568,3618,2115,-807,-2551,-231,-193,3851,875,-765,-2784,-203,-465,3843,-741,-682,-2643,-241,-845,3893,-2533,-682,-2309,-70,-1319,3820,-3329,-778,-2003,261,-1492,3651,-3678,-864,-1639,572,-1144,3237,-3748,-841,-1110,778,-621,2270,-3547,-735,-593,803,-59,1361,-2944,-502,-89,711,299,536,-2048,-237,236,595,518,149,-1487,-44,550,504,289,-99,-1064,110,636,537,-20,-172,-416
724,-691,149,-289,85,-16,716,-688,174,-290,99,1,706,-694,188,-285,101,10,698,-700,192,-281,94,27,688,-703,182,-256,105,52,696,-709,159,-245,90,79,700,-719,146,-223,118,84,714,-733,186,-202,189,93,766,-835,328,-80,266,-44,815,-919,569,215,147,-496,805,-926,754,693,-177,-833,727,-808,739,1242,-603,-1048,636,-672,624,1669,-878,-955,581,-555,470,1853,-1026,-726,547,-466,327,1979,-971,-421,553,-451,211,1951,-919,-79,538,-441,74,1899,-947,244,499,-457,-82,1793,-977,589,390,-474,-250,1577,-1075,911,265,-554,-441,1418,-1030,1484,206,-799,-639,1256,-625,1881,92,-993,-727,927,52,2214,125,-1519,-742,513,1019,2075,166,-2212,-675,375,2331,1060,130,-3055,-564,-347,3317,-1127,-66,-3578,-569,-1619,3673,-2978,-443,-3613,82,-2207,3531,-4170,-787,-2911,703,-1935,2563,-4847,-864,-2026,869,-1535,1757,-4717,-796,-1248,897,-996,1203,-3821
769,-692,204,-22,220,155,764,-693,235,-34,229,67,767,-695,273,-40,235,6,774,-693,347,3,243,0,772,-730,441,16,263,-27,681,-823,629,78,305,-142,501,-983,850,344,22,-350,294,-1107,864,1045,-816,-556,182,-1190,649,1811,-1761,-635,89,-1189,240,2463,-2711,-762,28,-1077,-245,2679,-3198,-853,94,-862,-700,2433,-2972,-829,65,-621,-974,2276,-2253,-417,55,-530,-1191,2110,-1823,73,33,-487,-1330,1643,-624,607,-41,-648,-1355,1073,436,1141,-170,-1071,-1435,-13,1914,1424,-342,-1682,-1488,-729,3402,1402,-691,-2496,-1425,-2112,4415,256,-750,-2967,-1068,-2815,4952,-1165,-639,-2906,-501,-2895,4665,-2308,-601,-2618,-13,-2541,3944,-2812,-631,-2146,509,-1795,2983,-2829,-543,-1477,748,-719,1830,-2371,-315,-863,691,5,907,-1781,-31,-330,586,270,296,-1278,166,24,540,316,73,-935,318,245,569,193,-23,-505,446,318,602,111,-115,-170,591,317,599,79,-208,163,741,257,562,119,-234,422
502,-941,-168,657,-841,229,554,-932,-198,535,-773,224,579,-889,-133,420,-648,145,623,-845,-107,334,-580,152,650,-848,-56,304,-482,137,660,-833,-43,237,-412,119,653,-844,-23,186,-350,79,629,-825,-17,131,-307,54,601,-834,3,104,-287,70,551,-818,0,81,-390,73,469,-795,-58,89,-567,177,331,-813,-192,124,-784,445,199,-858,-364,132,-871,800,41,-1002,-563,332,-479,1267,-38,-1418,-834,665,397,1438,-317,-2319,-1045,879,2453,140,-934,-3191,-814,-662,3876,-2348,-1254,-3640,-246,-2048,4403,-3710,-1312,-3102,495,-1960,3669,-4586,-1167,-2371,727,-1522,2700,-4928,-1044,-1534,795,-909,1967,-4483,-931,-947,829,-371,1335,-3718,-817,-410,787,75,731,-2781,-694,12,673,308,271,-1880,-553,356,558,374,-37,-940,-415,528,521,261,-225,-153,-239,567,532,141,-453,649,-30,564,526,221,-775,1348,224,430,424,388,-763,2234,465,231,336,576,-604,2710
408,-557,738,419,-259,494,393,-517,731,191,-394,469,398,-535,723,146,-450,541,387,-555,722,141,-477,594,392,-583,687,173,-577,633,379,-586,654,170,-569,644,379,-622,630,152,-565,660,364,-640,610,99,-534,668,372,-702,600,83,-569,681,370,-735,563,82,-535,646,383,-793,515,145,-493,670,384,-922,449,370,-234,739,354,-1085,362,505,6,711,345,-1486,335,439,386,321,195,-1786,408,417,859,-625,-64,-2018,636,61,1025,-2061,-373,-2209,1024,-665,919,-3507,-645,-2426,1536,-1440,410,-4470,-899,-2191,1856,-1682,-430,-4980,-1115,-1741,1938,-1420,-1163,-5308,-1425,-1110,1933,-748,-1294,-5240,-1552,-359,1424,425,-1618,-3828,-1325,191,642,953,-1794,-2330,-981,499,178,1020,-1404,-1082,-518,621,-8,715,-673,9,-196,690,-13,342,-248,456,-4,751,77,34,83,646,137,797,154,-23,188,859,277,775,197,52,314,1027,354,767,210,120,361,1128
659,-657,360,-43,-42,-163,670,-634,361,-81,-34,-144,684,-615,362,-106,-9,-132,702,-592,383,-152,-6,-132,727,-574,398,-165,7,-138,781,-544,415,-254,21,-199,833,-487,441,-370,84,-321,842,-399,565,-566,84,-511,672,-338,791,-616,-294,-678,533,-513,973,-186,-888,-550,446,-787,895,811,-1553,-182,359,-1008,620,1701,-2262,118,192,-1011,201,1856,-2826,405,128,-1022,-87,1662,-3062,550,95,-1028,-340,1606,-2490,626,40,-1029,-435,1371,-2017,622,0,-1062,-599,1264,-1587,650,-62,-1087,-753,1364,-1072,577,-181,-1209,-854,1356,-396,589,-218,-1422,-992,1204,610,264,-341,-1751,-965,511,2057,-290,-597,-2297,-848,-460,3560,-1413,-879,-2621,-500,-1172,4432,-2598,-958,-2872,-133,-1297,4743,-3916,-993,-2740,289,-845,4134,-4648,-1141,-2298,765,-589,2478,-5120,-1339,-1711,1258,-620,1283,-5089,-1348,-943,1324,491,315,-3620,-1016,-389,914,1324,-299,-2043,-594,139,453,1461,-626,-936
438,-385,832,53,104,25,438,-300,863,-32,-12,31,438,-253,884,-29,-84,116,434,-202,893,-19,-155,192,433,-175,887,0,-226,306,418,-156,887,62,-232,416,396,-158,895,95,-333,615,385,-202,901,178,-397,773,387,-265,885,315,-454,923,361,-317,866,388,-493,1022,343,-403,844,484,-535,1144,321,-481,777,537,-493,1190,319,-700,677,708,-354,1326,353,-1020,527,950,112,986,217,-1300,644,639,482,253,63,-1568,942,353,746,-872,-277,-1759,1380,-25,569,-2533,-706,-1846,1884,-1094,-287,-3916,-951,-1960,2365,-1843,-1259,-4649,-1077,-1655,2556,-1844,-2267,-5120,-1265,-1096,2431,-1509,-2735,-5186,-1450,-342,2101,-861,-2724,-4284,-1327,119,1513,135,-2439,-2806,-995,356,783,755,-2081,-1391,-689,521,267,860,-1753,-578,-384,638,-64,582,-1330,0,-148,736,-184,313,-671,320,114,789,-158,104,-33,638,317,788,-75,195,604,770,495,714,1,352,992,908
331,351,846,445,-103,-92,331,365,796,369,-128,-63,339,391,787,237,-95,-35,339,426,802,220,-32,-69,346,455,814,170,-45,-89,353,485,807,162,-194,-96,383,486,786,107,-475,-95,396,494,762,-8,-472,-58,427,495,733,-88,-481,-66,454,499,706,-90,-394,-103,490,536,660,-133,-189,-176,525,682,636,-22,47,-166,501,822,586,115,113,-25,415,922,496,136,10,190,222,981,459,192,40,315,29,1001,533,590,360,685,-121,990,671,1012,921,1171,-221,923,843,1757,1542,1795,-280,814,949,2405,2179,2001,-196,777,1025,2402,2269,2065,-157,707,963,2353,2296,1777,-70,554,1012,1878,2258,1624,2,352,1148,1280,1994,1106,68,129,1396,578,1240,322,-2,28,1792,-295,-273,-994,-338,274,2173,-1250,-1885,-2029,-673,569,2463,-1532,-3453,-2739,-911,889,2513,-1352,-4361,-2703,-996,1155,2361,-1200,-4944,-1922,-944,1322,2116,-1035,-5253,-1121
521,865,261,30,-89,-187,500,877,258,14,-99,-113,491,865,247,-14,-92,-35,483,848,230,-18,-65,-6,481,841,208,-35,-38,23,490,839,196,-55,-4,37,499,841,170,-3,57,54,516,831,171,-20,71,75,532,872,106,176,78,48,526,893,-48,572,135,136,455,875,-300,660,232,346,296,960,-409,461,535,333,107,1070,-351,700,1080,323,-49,1236,-154,1338,1847,139,-94,1341,39,1926,2581,308,-64,1349,238,2242,2848,210,-13,1275,325,2124,2689,195,-13,1203,313,1905,2446,224,0,1084,349,1680,2319,146,52,979,487,1334,2085,62,95,893,718,1036,1507,-206,42,881,937,558,495,-459,-70,1039,1180,-17,-910,-568,-348,1414,1327,-665,-2568,-549,-722,2016,1390,-1346,-3924,-123,-1028,2567,1355,-1646,-4696,850,-1158,2789,1278,-1781,-5105,2088,-1144,2669,985,-1592,-5169,3038,-1219,2376,582,-1239,-4742,3195,-1311,1938,-32,-674,-3907,2946
39,474,857,-470,1,182,48,481,873,-454,-191,271,35,498,872,-414,-325,507,90,513,891,-399,-401,826,115,554,906,-419,-400,992,157,498,885,-517,-480,1213,156,406,910,-632,-553,1391,144,237,932,-525,-658,1579,89,-32,933,-1368,-1422,1221,223,-353,842,-587,-1561,1441,271,-510,735,-154,-1420,1604,342,-663,581,-88,-1316,1515,393,-803,379,-102,-1130,1176,405,-882,142,-175,-720,982,505,-1022,-92,-51,-108,815,524,-1179,-244,-19,561,497,541,-1433,-290,-158,1173,-82,462,-1799,-205,-408,1842,-954,275,-2247,62,-720,2386,-2173,36,-2734,407,-1161,2497,-3513,-332,-3270,826,-1823,2150,-4474,-578,-3311,1182,-1882,1409,-4982,-1131,-2686,1443,-1344,732,-5292,-1434,-1862,1595,-422,154,-4634,-1240,-955,1118,802,-456,-3056,-890,-288,643,1101,-889,-1982,-557,218,320,809,-915,-1224,-347,474,275,400,-582,-552,-151,604,353,63,-241,70,26,654,473,15,-9,626
277,-918,271,-39,-91,-48,287,-927,325,-45,-79,-27,288,-922,399,-39,-93,-43,284,-910,475,-59,-154,-110,289,-895,564,-115,-228,-231,263,-856,658,-202,-395,-460,162,-904,709,-190,-630,-552,48,-1036,728,-26,-1075,-597,-136,-1193,591,569,-2030,-605,-249,-1270,311,1202,-3085,-445,-355,-1281,-54,1611,-4047,-154,-212,-1177,-388,1588,-3755,138,-213,-1030,-458,1196,-2859,51,-287,-989,-551,1212,-2393,236,-307,-993,-797,1393,-1780,493,-296,-1090,-1074,1211,-629,564,-403,-1378,-1262,804,1301,164,-698,-1770,-1227,173,3069,-509,-1048,-2337,-1160,-495,4226,-1649,-1289,-2865,-939,-1315,4884,-3246,-1253,-2915,-621,-1116,5038,-4077,-1145,-2664,-224,-877,4267,-4566,-1180,-2280,219,-714,3338,-4549,-1148,-1722,607,-106,2211,-3904,-966,-1111,679,595,1227,-3007,-666,-500,616,1002,442,-2048,-403,-70,572,1081,74,-1391,-186,255,548,894,-152,-791,-10,397,576,604,-296,-313,149,456,608,441,-322,240
307,-951,59,-170,-40,-230,342,-939,9,-271,32,-257,364,-920,-25,-453,34,-232,375,-892,-80,-675,-32,-243,425,-880,-135,-908,34,-219,453,-856,-178,-905,198,-30,445,-860,-197,-822,66,47,432,-864,-248,-683,51,94,399,-886,-294,-468,40,175,381,-887,-342,-344,43,124,369,-884,-369,-231,16,43,389,-867,-405,-151,66,17,403,-846,-404,-75,213,-2,421,-834,-383,-66,275,36,415,-876,-294,-119,267,51,405,-952,-160,-134,107,56,299,-1154,-5,-223,-30,8,48,-1600,102,-30,-497,-372,-135,-1849,-140,495,-1301,-1077,-327,-1790,-539,1053,-1955,-2213,-514,-1438,-814,1411,-2255,-3175,-552,-909,-1058,1553,-2231,-3596,-498,-354,-1207,1680,-1993,-3243,-345,308,-1414,1574,-1501,-2124,-226,773,-1610,1170,-750,-590,-138,760,-2155,-58,861,981,-261,191,-2598,-1292,2516,1931,-523,-577,-2756,-2196,3912,2288,-587,-1202,-2589,-2295,4648,1961,-623,-1727,-2238,-2172,4917,1160
304,-944,-317,76,-394,-184,283,-936,-361,179,-358,-138,254,-950,-384,232,-340,-28,233,-942,-377,157,-360,-140,241,-918,-339,139,-442,-193,244,-888,-307,79,-516,-225,220,-920,-298,21,-610,-252,206,-927,-320,3,-740,-322,200,-900,-368,7,-813,-379,231,-854,-492,32,-800,-388,274,-809,-585,82,-694,-298,317,-774,-671,137,-443,-137,357,-761,-737,107,-167,-33,429,-800,-856,80,274,124,459,-867,-928,-36,912,55,513,-861,-946,-206,1662,-125,539,-889,-836,-423,2319,-328,541,-901,-687,-664,2661,-487,527,-923,-491,-672,2683,-544,515,-875,-301,-759,2607,-704,372,-872,-53,-744,2381,-629,25,-913,249,-698,1907,-423,-565,-1068,587,-524,845,4,-877,-1108,633,71,-1049,247,-993,-1197,169,574,-3048,412,-848,-1327,-670,858,-4180,1,-594,-1196,-978,801,-4058,-275,-428,-1079,-1323,697,-3838,-569,-340,-922,-1363,604,-2936,-431,-266,-794,-1491,526,-2270,-448
93,808,509,572,-406,-315,115,826,452,576,-432,-270,106,864,381,553,-350,-255,105,884,353,507,-93,-242,89,920,329,415,39,-194,80,921,272,267,93,-190,66,930,231,256,134,-132,48,952,187,334,167,-41,35,1015,99,464,218,-6,-3,1068,-15,481,285,37,-36,1109,-177,287,406,237,-82,1060,-248,186,555,520,-239,1039,-339,329,866,619,-446,1121,-304,460,1616,550,-618,1212,-169,625,2684,607,-722,1232,-99,873,3397,537,-748,1226,172,900,3896,602,-588,1118,416,897,3536,655,-509,1038,600,1068,3086,452,-376,907,870,921,2456,247,-262,850,1210,473,1199,-94,-395,1020,1589,-190,-1106,-585,-851,1426,1674,-725,-2955,-719,-1286,1822,1610,-1383,-4145,-150,-1372,1927,1543,-1616,-4774,541,-1190,1945,1412,-1747,-5180,1271,-982,1837,1112,-1580,-5101,1681,-884,1674,660,-1300,-4472,1707,-855,1522,155,-792,-3566,1439,-712,1239,-255,-184,-2268,1345
449,800,329,-234,-28,-14,456,811,313,-298,-16,-33,469,827,325,-280,-12,-76,464,847,334,-248,-62,-128,448,859,336,-159,-67,-123,432,856,347,-113,-48,-57,419,837,357,-98,-14,28,416,816,370,-68,30,66,430,788,393,-59,67,96,453,769,407,-74,76,110,498,761,393,-97,72,89,563,815,341,-130,57,43,587,932,222,-193,-22,79,438,1088,67,-225,-126,225,249,1250,-17,88,172,639,-10,1324,147,471,1035,1469,-152,1161,556,737,1767,2135,-170,861,822,815,1832,2498,-54,496,958,791,1605,2524,41,148,1029,911,1308,1991,100,-150,1024,658,1169,1380,82,-420,1089,292,973,435,33,-505,1202,186,572,-632,-85,-575,1602,-305,-179,-2005,-291,-430,2025,-705,-1001,-2959,-561,-168,2569,-1378,-2401,-3747,-707,40,2898,-2500,-3830,-4186,-700,272,2777,-2385,-4554,-3965,-744,506,2433,-2065,-4832,-3325,-916,843,1965,-1389,-4447,-2550
127,12,950,-376,-67,99,143,11,939,-359,-119,66,156,27,954,-371,-168,43,157,41,973,-282,-176,68,163,47,975,-318,-207,40,158,64,977,-334,-247,125,215,74,1016,-392,-367,268,251,124,1052,-156,-328,423,270,192,1022,199,-470,611,243,277,952,601,-402,730,40,378,1016,677,-273,901,-194,373,1102,629,-247,1341,-345,175,1254,499,-468,2052,-365,-125,1196,650,-600,2698,-154,-444,1084,721,-797,2910,-84,-528,966,873,-798,2713,-34,-691,874,1081,-696,2730,151,-944,689,1167,-458,2230,238,-1217,583,1068,84,1243,236,-1542,614,403,504,-335,-33,-1843,842,-230,935,-2212,-644,-2113,1344,-857,1067,-3734,-1095,-2227,1799,-1116,530,-4539,-1349,-2235,2103,-968,-266,-5057,-1404,-1997,2175,-607,-1133,-5332,-1508,-1445,1978,-178,-1759,-5227,-1615,-762,1743,281,-1783,-4334,-1410,-170,1283,993,-1645,-2592,-1019,130,782,1326,-1525,-1179,-561,361,324,1293,-1224,-191
341,-443,773,-84,-179,-98,371,-442,756,-146,-159,-53,396,-438,755,-151,-128,5,409,-444,772,-138,-70,45,408,-456,795,-54,-35,112,406,-456,808,45,-21,158,411,-441,805,72,-74,168,436,-411,808,36,-111,165,447,-362,864,-62,-152,113,453,-283,917,-292,-422,28,376,-216,930,-458,-525,29,218,-266,1001,-776,-733,119,68,-554,1080,-780,-1496,356,-24,-878,905,-138,-2372,625,-81,-1083,524,418,-3208,746,-11,-1121,112,477,-3402,475,37,-1055,-228,678,-2946,180,113,-968,-640,806,-2119,140,139,-829,-971,709,-905,247,168,-888,-1289,342,482,357,44,-1333,-1346,-164,2166,278,-181,-1902,-1160,-457,3579,-462,-414,-2434,-710,-641,4426,-1826,-563,-2735,-247,-790,4433,-3375,-712,-2778,187,-750,3926,-4324,-991,-2388,552,-239,3150,-4678,-1240,-1754,783,359,2266,-4338,-1225,-1298,806,856,1537,-3669,-1030,-631,678,1395,175,-2726,-724,3,431,1574,-569,-1710
-9,-323,1013,-447,-561,-286,91,-379,999,-320,-601,-541,196,-366,999,-269,-672,-867,252,-302,968,-361,-784,-1051,289,-182,963,-552,-795,-1109,302,-20,988,-526,-762,-895,164,111,1131,-483,-691,-570,-57,133,1178,-401,-1127,24,-91,-187,1112,-393,-1811,697,-71,-548,875,-130,-2458,994,19,-920,524,63,-2823,1177,32,-1066,167,105,-2726,1107,103,-1088,-140,326,-2203,854,142,-1080,-332,439,-2005,749,202,-970,-639,677,-1326,701,293,-945,-930,871,-450,821,394,-1111,-1101,707,376,632,385,-1499,-1204,497,1876,-103,220,-1956,-974,89,3238,-1362,-14,-2302,-521,-352,3592,-2873,-114,-2388,-98,-652,3306,-3928,-185,-2295,269,-652,2632,-4700,-312,-1969,547,-604,1881,-4936,-521,-1493,807,-442,1358,-4565,-705,-1040,1012,-186,878,-3811,-648,-515,925,284,162,-2884,-537,-18,740,608,-304,-2118,-427,333,602,701,-511,-1282,-237,501,546,483,-624,-502,-56,534,573,290,-605,152
231,284,952,1057,93,302,238,451,828,1251,186,159,146,621,822,973,277,374,119,749,814,920,535,655,49,869,837,946,687,1103,-56,907,747,877,966,1595,-150,820,745,717,1198,2113,-191,643,782,542,1277,2372,-147,413,819,433,1198,2407,-25,218,857,361,1029,2068,52,140,893,256,819,1717,161,130,912,233,612,1245,213,181,904,162,437,917,255,253,884,141,346,699,278,291,877,81,304,577,312,263,886,27,248,459,347,204,924,10,197,256,333,144,922,-47,65,-24,261,20,960,4,-37,-332,191,-187,1136,19,-207,-697,-2,-342,1378,3,-626,-1490,-296,-324,1700,-143,-1267,-2474,-849,-195,1989,-395,-2423,-3482,-1361,-189,2317,-819,-3668,-4337,-1913,19,2557,-887,-4550,-4717,-2164,349,2408,-551,-5017,-4375,-2263,801,1849,-148,-5051,-3273,-1962,1006,1193,285,-4329,-1789,-1353,911,537,496,-3347,-460,-857,826,79,399,-2567,138
388,66,885,-62,-50,-162,424,83,886,-122,-21,-169,447,109,894,-212,-45,-174,461,127,896,-226,-62,-187,462,141,886,-197,-71,-230,468,158,861,-161,-81,-242,492,190,823,-52,-23,-305,485,270,803,160,53,-417,358,493,710,614,265,-305,160,758,711,1346,671,206,-64,919,699,1856,952,923,-228,1010,671,2193,1596,1441,-326,988,661,2039,1987,1766,-342,940,682,1837,2295,1836,-318,858,723,1915,2530,1751,-258,757,709,1772,2440,1360,-247,707,726,1554,2347,1002,-174,599,958,947,1770,529,-189,497,1153,722,807,-136,-340,432,1426,339,-611,-952,-778,606,1605,395,-2083,-1743,-1500,997,1578,489,-3620,-2213,-1909,1311,1412,99,-4523,-1477,-1918,1440,1305,-537,-5001,-494,-1609,1295,1068,-631,-5196,190,-1278,1117,730,-552,-4823,382,-993,975,344,-403,-4154,300,-760,909,-10,-187,-3292,220,-473,816,-313,67,-2102,335,-176,685,-452,239,-1056,317
70,312,895,-465,-440,-6,137,329,904,-568,-522,80,165,358,880,-670,-524,449,148,426,910,-632,-542,648,130,414,953,-381,-477,937,146,287,942,-333,-480,1215,191,24,929,-193,-436,1268,239,-215,937,118,-292,1014,281,-398,936,166,-306,657,331,-519,899,182,-301,152,438,-589,877,-5,-318,-342,524,-516,828,-387,-421,-788,532,-370,822,-750,-431,-1115,512,-168,821,-929,-386,-1234,458,142,860,-973,-177,-1131,331,428,991,-958,-51,-653,127,470,1133,-534,-163,102,-15,292,1156,-131,-513,1272,-50,-128,1071,-68,-1180,2295,-34,-443,851,-170,-1620,2498,-38,-754,719,-140,-1742,2444,-63,-945,484,-245,-1886,2157,-57,-1030,120,-171,-1970,1810,18,-1291,-307,449,-1207,1444,125,-1651,-525,930,25,609,91,-1967,-414,1057,1139,-831,-134,-2253,125,526,1643,-2701,-339,-2182,679,-375,1307,-3921,-333,-1930,1059,-1031,644,-4660,-286,-1613,1256,-1482,-1,-4806
177,579,789,112,79,-20,170,558,797,242,62,-197,163,538,820,119,-140,-303,168,529,801,5,-425,-424,199,546,763,136,-501,-557,215,634,714,169,-538,-595,231,734,703,302,-513,-520,230,881,598,673,-414,-510,181,1014,371,1273,-178,-141,55,1090,56,1535,287,193,-88,1099,-147,1120,1089,605,-196,1129,-117,1088,1654,917,-311,1189,-14,901,2400,1228,-359,1106,132,1221,2993,1293,-364,1066,186,1615,3262,1056,-328,1012,347,1345,3185,1020,-217,908,478,1481,2745,665,-213,920,695,1314,2465,344,-113,875,996,1186,1427,99,-169,664,985,440,159,-182,-335,698,1119,-36,-1128,-762,-728,1058,1210,-336,-2681,-1343,-1157,1555,1141,-449,-3784,-1308,-1328,1935,1060,-202,-4220,-414,-1230,1929,1123,-690,-4634,806,-1126,1896,1243,-1165,-5100,1520,-1121,1838,1103,-1359,-5346,1884,-1213,1703,683,-1214,-5217,1867,-1318,1554,117,-784,-4526,1646,-1160,1167,-413,121,-2920,1673
213,788,590,-568,-835,-1026,150,844,556,-530,-697,-1055,102,866,533,-441,-726,-898,119,830,557,-287,-697,-778,135,806,570,-381,-679,-548,168,778,566,-381,-547,-500,140,802,579,-430,-580,-442,149,800,586,-466,-580,-296,148,874,555,-454,-471,-248,46,1019,483,-449,-336,-78,-118,1168,436,-329,63,366,-329,1290,548,-68,722,1087,-463,1248,814,479,1343,1866,-512,1058,991,925,1536,2495,-503,812,968,1204,1595,2776,-411,503,965,1203,1650,2694,-227,241,968,854,1400,2211,10,-40,1045,612,1054,1499,229,-317,1121,413,606,706,407,-544,1303,41,-62,-408,361,-505,1599,-354,-773,-1311,79,-269,1911,-692,-1738,-2069,-253,-26,2047,-932,-2567,-2456,-569,232,2063,-798,-3098,-2701,-752,567,1973,-712,-3582,-2339,-747,860,1744,-727,-3854,-1770,-708,1052,1431,-742,-3840,-1234,-731,1120,1048,-701,-3543,-816,-796,1131,572,-497,-2801,-496,-712,1098,189,-251,-1868,-258
236,638,680,-139,-47,-6,244,661,672,-178,-77,-72,240,694,667,-197,-96,-110,233,720,673,-187,-93,-118,226,734,674,-153,-78,-81,226,730,672,-130,-66,-31,235,714,670,-92,-40,19,242,694,665,-77,-27,48,245,676,675,-49,-3,31,237,668,688,-38,-3,5,225,662,695,-50,-30,12,220,672,686,-83,-48,3,223,755,652,-144,-66,-4,183,876,601,-151,-78,81,21,1062,569,-106,-19,432,-153,1119,665,109,413,1111,-198,1004,834,253,734,1774,-187,823,932,811,938,2141,-214,614,964,1018,1119,2122,-160,316,993,723,1018,1954,40,-73,998,560,865,1810,363,-526,999,80,809,1055,478,-821,1052,-127,752,-185,329,-929,1433,-410,86,-1720,-21,-888,1746,-666,-872,-2995,-423,-708,1934,-1062,-1833,-3558,-603,-492,1933,-1063,-2226,-3797,-677,-218,1884,-1004,-2577,-3691,-674,38,1741,-870,-2680,-3228,-681,270,1498,-683,-2488,-2711
247,-635,757,-1111,-106,-161,234,-673,697,-822,129,-272,232,-664,642,-837,306,-315,266,-653,633,-708,379,-210,287,-647,651,-505,159,-76,332,-639,654,-427,64,18,320,-625,723,-473,86,-17,323,-604,828,-592,24,9,282,-603,980,-536,-45,-65,98,-620,1112,-516,-555,-49,-82,-851,1132,-260,-1386,118,-176,-1022,960,84,-2214,180,-263,-1130,694,655,-3113,306,-253,-1131,314,1059,-3361,526,-197,-1088,-151,1187,-3273,489,27,-1004,-669,1211,-2428,508,204,-970,-953,983,-1015,440,204,-1033,-965,452,287,214,67,-1257,-863,-197,1592,-254,-77,-1469,-783,-657,2581,-740,-267,-1748,-638,-907,3542,-1088,-463,-2005,-371,-1030,4029,-1581,-617,-2069,-90,-1197,3841,-2519,-652,-1910,175,-1226,3353,-2876,-646,-1708,414,-1222,2802,-3027,-612,-1395,647,-1069,2126,-2847,-556,-1078,800,-828,1540,-2444,-451,-733,908,-470,941,-1768,-300,-491,926,-174,391,-1031,-77,-355,873,34,-166,-320,148,-319,774,223,-531,258
259,43,933,228,56,-34,258,68,935,179,43,-121,274,113,937,140,-4,-127,278,139,934,156,12,-106,290,165,940,247,39,-67,297,192,934,312,68,-46,327,227,944,631,144,-52,397,269,902,1814,583,-621,205,634,648,2365,710,-1353,-110,988,437,2236,812,-899,-382,1090,201,2241,847,-36,-446,1014,-24,2441,802,680,-556,973,-65,2095,1231,564,-532,945,-30,2038,2258,361,-440,901,-17,1513,2529,223,-339,912,58,1113,2514,246,-165,932,227,842,2207,278,56,977,402,558,1667,199,202,1023,612,441,1053,57,218,1084,787,109,-36,12,81,1323,944,-225,-1354,109,-228,1500,903,-584,-2570,408,-662,1726,619,-1034,-3604,891,-858,1805,310,-1142,-3882,1433,-869,1801,-4,-1134,-3783,2017,-772,1642,-235,-1157,-3361,2376,-621,1354,-426,-1021,-2739,2193,-503,1087,-576,-833,-2230,1774,-352,826,-726,-610,-1519,1215,-183,666,-781,-364,-847,758
145,242,912,-69,-19,190,172,260,881,-109,-7,79,211,302,842,-186,32,-45,231,352,786,-329,115,-243,157,438,725,-741,202,-468,37,487,774,-912,179,-511,-314,546,1046,-965,154,-348,-768,439,1493,-595,-195,771,-981,125,1611,74,-749,2454,-984,-301,1414,770,-1357,3864,-851,-613,1154,1043,-1699,4448,-461,-929,847,1090,-1730,4054,-268,-1128,613,1136,-1364,3138,33,-1291,392,770,-652,1799,88,-1310,436,336,93,152,20,-1352,680,-154,619,-1685,-241,-1353,910,-339,1019,-3238,-686,-1159,1177,-689,1012,-4317,-977,-888,1507,-965,421,-4815,-1027,-602,1627,-754,-144,-4470,-920,-308,1571,-535,-783,-3797,-765,-53,1406,-373,-1142,-3116,-580,177,1193,-236,-1216,-2387,-425,341,1026,-104,-1044,-1770,-250,468,880,53,-785,-1094,-61,504,780,180,-557,-474,165,458,690,280,-345,46,329,405,638,264,-217,312,451,345,647,227,-38,481,529,293,696,203,68,585
206,-533,772,-609,247,-114,215,-527,755,-637,227,-163,230,-564,783,-871,215,-253,233,-586,812,-898,443,-234,214,-599,833,-970,470,-214,179,-594,906,-781,195,-127,55,-616,1012,-661,-134,-64,-172,-733,1095,-513,-851,3,-335,-916,1034,-286,-1936,183,-458,-1090,782,52,-3128,409,-473,-1144,416,384,-3957,274,-401,-1085,57,670,-4002,245,-261,-995,-328,829,-3427,256,-202,-993,-602,811,-2608,298,-95,-1013,-907,614,-1521,99,-64,-1114,-1168,266,125,-19,-188,-1431,-1474,-587,2419,-674,-691,-1834,-1332,-1626,3757,-1228,-826,-2068,-644,-1991,4469,-1531,-772,-2023,-200,-1717,3837,-1920,-678,-1785,212,-1362,2850,-2091,-487,-1439,430,-1003,1921,-1877,-254,-1104,558,-702,1211,-1579,-31,-825,624,-481,754,-1217,175,-668,654,-300,403,-984,356,-511,628,-105,82,-781,502,-410,592,31,-160,-604,627,-383,533,212,-343,-344,718,-396,465,480,-394,-55,777,-419,408,649,-450,138
184,754,597,-429,-282,223,247,717,624,-364,-192,241,297,672,648,-319,-135,205,339,622,679,-266,-136,119,349,598,691,-249,-168,6,340,600,699,-265,-205,-59,338,606,697,-235,-198,-112,327,622,704,-233,-169,-144,324,627,709,-188,-129,-91,338,602,703,-167,-107,-88,371,602,673,-140,-78,-153,397,659,614,-153,-104,-273,297,807,543,-210,-191,-380,16,1046,539,-141,-10,-340,-318,1242,634,247,664,634,-512,1149,840,704,1462,1954,-604,922,1011,1174,2030,3233,-565,642,1171,1751,2224,3722,-417,426,1179,2194,2039,3260,-339,290,1166,2095,1823,2733,-184,100,1199,1565,1286,2003,-44,-39,1281,722,328,647,-78,24,1394,51,-633,-684,-331,228,1440,-454,-1694,-1927,-606,578,1453,-1055,-2481,-2533,-807,930,1577,-1543,-3411,-2934,-891,1157,1572,-1765,-4114,-2655,-789,1237,1298,-1635,-4188,-2022,-605,1205,991,-1332,-3804,-1402,-463,1142,617,-1001,-3107,-928
695,-499,643,-110,-44,-267,635,-475,780,94,-37,192,466,-529,936,390,-147,474,228,-626,1029,523,-721,509,52,-881,953,906,-1476,769,-67,-1100,760,1111,-2158,803,-94,-1263,443,1409,-2593,774,-83,-1281,122,1400,-2692,623,-14,-1260,-165,1390,-2478,492,67,-1137,-418,1419,-1798,531,106,-1045,-540,1251,-1174,598,161,-1021,-712,958,-491,767,199,-1145,-868,578,224,776,166,-1383,-978,309,1452,333,11,-1785,-1171,-404,2760,-648,-376,-2490,-993,-1463,3996,-2024,-483,-3093,-662,-2118,4205,-3368,-386,-3028,-297,-2044,3813,-4349,-291,-2525,-46,-1989,3229,-4652,-176,-2046,192,-1860,2567,-4297,-151,-1662,460,-1566,1920,-3770,-166,-1364,695,-1217,1386,-3239,-226,-1001,890,-650,859,-2603,-263,-605,948,-140,360,-1978,-197,-226,910,295,-9,-1193,-62,50,858,624,-157,-468,132,262,741,830,-258,78,302,376,623,762,-323,261,438,436,550,617,-292,368,525,438,513,512,-265,478
635,-605,533,-207,359,72,449,-682,754,-141,215,111,158,-914,949,221,-361,318,-93,-1216,907,912,-1312,670,-222,-1565,582,1498,-2491,756,-204,-1651,224,1842,-3059,339,-96,-1532,-221,1881,-3256,-194,-82,-1333,-444,1760,-3011,-546,-86,-1059,-718,1754,-2865,-508,-103,-860,-1086,1732,-2690,-179,-51,-734,-1508,1573,-1389,420,-76,-895,-1834,594,608,483,-446,-1612,-1913,-960,2803,239,-808,-2443,-1763,-2094,3987,-410,-885,-3227,-1306,-3157,4696,-1827,-699,-3424,-844,-3556,4823,-3026,-522,-3259,-328,-3327,4240,-3570,-496,-2833,288,-2689,3292,-3573,-467,-2262,673,-1632,2167,-3127,-336,-1509,741,-614,1055,-2457,-157,-915,678,-94,438,-1791,46,-448,629,130,98,-1147,180,-148,595,144,-48,-794,295,36,619,102,-85,-286,403,110,651,161,-79,129,547,165,655,196,-234,325,680,194,608,244,-301,401,784,227,546,254,-331,418,822,189,490,286,-119,711,836,76,483,350,22,1039
824,-515,218,-114,287,-147,793,-435,401,-94,421,-94,683,-395,648,-14,445,42,456,-608,924,73,104,322,148,-907,1070,570,-661,561,-135,-1239,883,1303,-2139,884,-312,-1497,489,1917,-3357,989,-390,-1595,22,2255,-4118,766,-295,-1467,-412,2133,-4089,298,-226,-1280,-731,2122,-3113,224,-218,-1160,-1121,2089,-2278,366,-141,-1139,-1511,1718,-813,440,-256,-1412,-1776,510,1307,63,-624,-2127,-1942,-1359,3067,-857,-1066,-2929,-1775,-2541,4225,-1663,-1223,-3426,-1448,-2838,4838,-2575,-1071,-3556,-913,-2673,5053,-3840,-984,-3211,-246,-2209,4291,-4308,-965,-2645,396,-1419,2994,-3911,-847,-1996,709,-520,1623,-3195,-502,-1266,734,217,446,-2345,-181,-711,671,466,-93,-1767,41,-272,625,372,-251,-1354,139,18,648,237,-126,-940,129,182,685,187,-6,-478,121,265,750,140,81,273,194,204,795,275,60,984,431,132,697,393,-282,1263,671,103,592,357,-398,1230,867,79,497,267,-382,1080
727,-556,539,54,109,52,592,-574,663,142,23,127,338,-778,863,194,-297,168,39,-1081,951,886,-1307,461,-168,-1441,628,1893,-2758,908,-285,-1573,175,2209,-3922,757,-318,-1563,-285,2224,-4445,174,-301,-1332,-677,2200,-4032,-98,-298,-1257,-997,2144,-3229,-17,-312,-1127,-1340,1821,-1510,15,-386,-1205,-1498,949,215,64,-646,-1828,-1706,-715,2453,-219,-1096,-2640,-1786,-1764,3777,-1104,-1525,-3528,-1462,-2981,4629,-2888,-1440,-3530,-931,-3036,4963,-3877,-1196,-3188,-284,-2664,4257,-4117,-1096,-2780,334,-1969,3129,-3946,-910,-2093,688,-823,1547,-3401,-599,-1429,690,21,450,-2576,-242,-837,620,353,-267,-1868,45,-387,575,394,-536,-1327,218,-103,564,278,-530,-887,362,69,584,194,-404,-357,463,104,619,150,-321,55,593,65,666,313,-468,231,743,82,562,630,-768,312,891,134,334,841,-895,304,970,199,160,848,-816,292,1011,229,35,745,-555,413,1042,192,-13,617,-289,569
868,-507,171,387,-43,419,852,-585,243,396,41,433,799,-635,366,411,-48,255,709,-728,474,681,-161,289,602,-783,495,863,-400,198,503,-829,448,1162,-617,322,442,-855,379,1282,-950,322,424,-887,241,1428,-1178,411,472,-926,100,1462,-1252,453,499,-908,-24,1529,-1074,641,486,-908,-81,1420,-990,773,464,-886,-157,1339,-913,912,543,-917,-383,1132,-711,1019,632,-978,-569,852,-138,999,680,-1197,-748,294,799,655,655,-1660,-864,-138,1910,24,448,-2487,-680,-528,3211,-1650,157,-2918,-244,-809,3277,-3290,-138,-2844,123,-878,2793,-4346,-329,-2513,388,-855,2232,-4853,-444,-1976,597,-699,1724,-4724,-519,-1407,741,-467,1262,-4145,-611,-959,862,-199,796,-3274,-628,-545,930,76,311,-2231,-522,-186,864,191,-48,-1380,-324,146,774,262,-199,-530,-127,324,729,274,-243,129,58,377,757,397,-239,771,195,338,791,497,-393,1160,376,271,759,617,-503,1461
710,-684,64,-127,76,-9,735,-677,80,-179,131,27,759,-672,128,-224,161,79,788,-704,217,-243,237,147,792,-682,344,-202,345,202,704,-678,533,-78,544,287,395,-850,838,-34,657,277,-158,-1184,1272,690,-457,333,-561,-1472,1084,1513,-2315,696,-785,-1686,505,2007,-3780,737,-793,-1613,-47,2179,-4413,427,-631,-1440,-548,2188,-4096,506,-492,-1256,-890,1922,-3227,477,-356,-1172,-1119,1606,-1964,442,-227,-1154,-1254,1002,-363,288,-240,-1357,-1275,36,1411,45,-483,-1770,-976,-743,3243,-442,-728,-1945,-427,-1317,3943,-1188,-704,-1893,96,-1410,3647,-1671,-616,-1639,435,-1010,3174,-1830,-515,-1230,781,-672,2493,-1752,-365,-888,1013,-485,1571,-1462,-137,-613,1020,-209,610,-969,72,-492,887,-32,-32,-542,270,-497,660,69,-487,-183,398,-507,452,176,-665,24,496,-536,275,256,-762,196,594,-530,138,306,-648,328,659,-555,73,284,-497,471,702,-614,67,170,-300,566
867,-579,116,114,104,282,820,-592,297,150,242,303,682,-611,556,207,311,401,516,-742,802,279,27,371,242,-932,952,548,-626,371,13,-1233,898,1049,-1593,606,-214,-1422,632,1830,-2666,739,-390,-1499,256,2100,-3637,773,-390,-1446,-202,2069,-3828,562,-346,-1314,-658,1870,-3303,508,-290,-1183,-1148,1452,-2697,440,-203,-1076,-1542,807,-1320,447,-190,-1097,-1577,92,238,453,-236,-1313,-1341,-821,1854,408,-359,-1507,-838,-1389,2725,308,-327,-1581,-301,-1514,2784,165,-244,-1477,52,-1252,2275,64,-125,-1333,383,-1051,1619,13,1,-1226,573,-819,886,-43,172,-1110,540,-416,266,-98,284,-1005,365,-88,-133,-180,338,-961,177,134,-311,-241,342,-939,30,392,-299,-276,311,-930,-55,615,-308,-256,306,-901,-143,839,-390,-244,321,-860,-221,893,-394,-260,398,-789,-272,838,-230,-179,462,-738,-265,587,137,-127,503,-709,-187,256,486,46,552,-712,-80,-33,855,167
458,-875,217,-117,12,-100,503,-877,254,-127,40,-86,555,-870,305,-64,28,-78,592,-850,400,-8,32,-111,612,-858,519,81,-40,-159,558,-867,698,107,-124,-349,410,-896,856,318,-371,-367,212,-1042,956,560,-860,-379,-22,-1140,901,946,-1535,-353,-236,-1212,648,1492,-2360,-220,-361,-1178,334,1878,-2984,-73,-389,-1076,-40,1794,-3372,-28,-352,-1011,-432,1896,-3335,279,-195,-931,-943,1816,-2654,447,-168,-901,-1214,1559,-1313,681,-225,-1069,-1293,1056,-174,710,-295,-1204,-1368,266,1140,873,-524,-1761,-1077,-377,2288,769,-563,-1983,-660,-883,2861,184,-444,-2180,-306,-1433,2994,-409,-330,-2081,118,-1729,2796,-1096,-273,-1739,515,-1551,2240,-1327,-132,-1232,702,-1401,1176,-1191,74,-909,594,-1155,441,-892,267,-688,391,-741,149,-642,399,-585,222,-337,97,-366,482,-579,99,-10,84,-186,522,-569,-19,256,-40,-105,527,-570,-119,331,-181,-68,547,-568,-236,321,-347,-46
500,-789,503,150,52,-28,346,-853,650,267,-116,88,177,-974,754,458,-602,97,18,-1133,760,706,-1152,109,-156,-1302,680,1121,-1969,185,-281,-1440,505,1574,-2758,235,-368,-1484,168,1838,-3587,24,-363,-1380,-253,1961,-3786,-182,-293,-1219,-609,1842,-3445,-192,-416,-1157,-1056,1910,-2949,14,-423,-1059,-1573,1912,-1781,163,-590,-1260,-1754,567,567,190,-981,-1996,-1463,-924,2614,66,-1374,-2446,-797,-1360,3967,-639,-1453,-2551,-280,-2352,4168,-1364,-1264,-2465,295,-2396,4177,-1770,-1108,-2012,971,-2018,3440,-1963,-781,-1375,1302,-1383,2092,-1687,-447,-914,1229,-787,962,-1131,-78,-658,966,-279,160,-553,193,-524,679,-18,-228,-241,373,-500,451,111,-443,9,503,-503,285,151,-443,156,580,-530,199,152,-488,287,641,-595,106,202,-517,406,656,-660,71,246,-446,499,666,-724,35,284,-415,510,652,-743,25,317,-370,541,641,-765,19,350,-282,572,629,-744,22,363,-186,618
751,-632,179,177,-217,-155,750,-613,236,364,23,-49,723,-582,278,452,-37,3,810,-554,451,380,-128,31,1004,-329,722,488,-512,168,1037,-156,954,916,-992,267,900,-78,1112,1617,-1351,286,647,-168,1117,2216,-1677,647,385,-433,1057,2792,-1839,909,116,-773,923,2618,-1823,1511,-123,-1155,900,2464,-1577,1596,-243,-1341,650,1374,-1435,1983,-306,-1257,257,900,-1245,1584,-413,-1187,-29,586,-806,1304,-796,-1448,-119,204,-89,1699,-1143,-2109,-54,217,970,1076,-1695,-2500,460,-590,2175,-1051,-1830,-2468,1285,-2001,3388,-2521,-1647,-2197,2041,-2963,3590,-3471,-1297,-1863,2381,-3688,3227,-3751,-978,-1507,2393,-3482,2588,-4230,-828,-1006,2302,-3120,1950,-4547,-742,-232,2065,-2697,1091,-4128,-597,223,1740,-2396,299,-2726,-408,501,1368,-1361,72,-1812,-221,664,1132,-722,19,-857,-30,648,953,-155,120,60,155,511,829,163,188,865,308,272,754,368,254,1401,463,45,750,494,301,1690
362,-894,186,-15,93,-124,388,-905,187,-20,82,-75,416,-940,176,-53,57,-2,419,-1006,130,-149,30,21,409,-980,120,-159,125,-94,419,-918,173,-131,151,-175,440,-869,247,-62,82,-192,538,-825,481,105,-153,-224,639,-756,795,517,-693,-250,687,-690,1111,1210,-1191,-235,601,-621,1284,1893,-1891,-39,343,-685,1223,2288,-2581,458,139,-911,1012,3081,-3014,257,-24,-862,909,3402,-2676,137,-129,-834,835,3063,-1864,660,-241,-843,803,2642,-1105,1048,-425,-979,716,1903,-574,1710,-734,-1239,442,1179,-174,2175,-1062,-1781,251,123,417,2425,-1334,-2217,385,-412,1368,1238,-1616,-2378,1033,-1644,2407,148,-1464,-2143,1550,-2328,3159,-1137,-1216,-1719,1631,-2845,3408,-1580,-823,-1440,1568,-2961,3489,-1511,-389,-1240,1566,-2999,3464,-1484,-101,-974,1440,-2430,3187,-1978,120,-599,1405,-1800,2764,-2417,334,-123,1229,-1431,1969,-2022,478,173,1034,-1171,1444,-1414,566,323,853,-812,918,-760
404,-927,77,34,-75,52,407,-941,74,34,-53,43,407,-946,72,19,-35,27,404,-941,71,19,-11,6,401,-937,65,21,5,3,408,-939,62,45,60,-11,435,-940,68,65,98,-48,523,-940,158,120,208,-155,681,-685,523,509,104,-413,760,-389,823,1076,-390,-281,728,-263,1057,1460,-1060,292,592,-429,1144,1855,-1711,767,334,-536,1175,2376,-2117,780,-28,-665,1250,2131,-2185,1703,-233,-886,1166,1764,-2298,2076,-343,-916,1026,1853,-2086,1257,-500,-933,768,1503,-1776,1182,-734,-1112,405,755,-1197,1562,-1014,-1510,123,30,-271,1885,-1307,-1957,401,-659,1279,1216,-1493,-2036,1009,-1437,2259,355,-1427,-2178,1555,-2431,2694,80,-1393,-2114,1536,-2940,3350,-614,-1200,-1887,1464,-3527,4342,-1169,-977,-1884,1887,-3713,4870,-1920,-652,-1335,2064,-3045,4563,-3204,-374,-594,2106,-2632,3450,-3228,-172,-95,1880,-2010,2122,-2449,9,186,1477,-1343,1260,-1808,150,392,1171,-852,753,-1238
578,-471,676,333,65,-94,617,-500,679,140,167,-84,629,-554,672,1,173,-61,624,-615,665,-208,205,-10,596,-657,657,-487,188,-75,564,-666,640,-636,139,-150,552,-603,692,-706,128,-332,586,-274,930,-742,16,-247,599,40,1263,-83,-510,125,559,250,1523,673,-1108,600,343,243,1780,1901,-1824,1168,15,-23,1999,2682,-2244,2009,-257,-463,2028,3155,-2697,2303,-339,-723,1878,2995,-2710,2157,-420,-924,1472,2382,-2444,1962,-483,-1097,975,1702,-1942,1600,-588,-1248,604,879,-1292,1475,-754,-1381,283,33,-187,1320,-1041,-1521,260,-470,1111,1059,-1551,-1744,596,-1087,2952,743,-1883,-1723,1275,-1102,4076,-477,-1900,-1596,1903,-1311,4734,-1702,-1741,-1387,2265,-1469,4914,-2805,-1321,-1056,2384,-1612,4433,-3593,-944,-761,2170,-1715,3533,-3627,-577,-438,1891,-1534,2680,-3478,-299,-120,1548,-1156,1847,-2927,-5,98,1250,-790,1214,-2079,236,187,997,-427,732,-1237,402,178,833,-106,481,-590
396,-776,638,16,5,-266,405,-784,629,16,-32,-372,439,-724,666,-1,0,-602,479,-596,740,-24,-88,-705,495,-439,872,-116,-148,-650,506,-104,1113,113,-455,-326,465,80,1337,747,-988,306,303,52,1578,1237,-1723,1390,22,-171,1720,1714,-2508,2253,-283,-465,1728,1957,-3254,2766,-505,-712,1546,1774,-3415,2735,-710,-934,1225,1467,-3343,2221,-837,-1099,844,1156,-2997,1546,-897,-1204,395,734,-2189,877,-934,-1237,105,381,-1135,622,-1108,-1336,-33,-61,382,722,-1635,-1495,153,-531,2351,620,-2260,-1632,791,-946,3716,-33,-2750,-1715,1566,-1207,4594,-1585,-2580,-1603,2145,-1363,5059,-2894,-1862,-1312,2371,-1641,4890,-3469,-1266,-1057,2262,-1481,4188,-3641,-740,-673,1962,-1277,2942,-3324,-402,-427,1656,-890,1970,-2713,-117,-178,1323,-425,1066,-2052,108,-43,1064,-207,600,-1303,332,39,848,237,163,-717,422,45,724,517,-124,-99,521,-51,639,865,-132,354,574,-170,637,1149,-67,606
376,504,697,730,100,230,393,561,784,862,256,139,385,555,871,570,186,51,410,542,923,472,-109,85,423,528,933,209,-259,68,399,525,885,16,-442,0,390,573,763,-166,-603,-88,411,650,569,-242,-602,-207,545,915,171,-144,-454,-236,648,1233,-179,118,87,52,696,1625,-510,909,691,819,442,1995,-538,1898,1380,1681,-14,2297,-264,2914,2096,2472,-345,2311,113,3151,2529,2736,-535,2093,442,2888,2502,2693,-661,1667,772,2443,2043,2504,-708,1244,1066,1900,1573,2142,-746,856,1312,945,1099,1231,-774,733,1379,28,620,-96,-958,977,1455,-834,51,-1702,-1202,1579,1455,-1801,-894,-3045,-1459,2339,1287,-2637,-2213,-4088,-1480,2880,1081,-3245,-3143,-4443,-1228,3217,811,-3597,-4018,-4355,-784,3146,434,-3597,-4442,-3555,-460,2541,79,-3222,-3836,-2285,-237,1904,-192,-2543,-2909,-1579,8,1407,-297,-1651,-2139,-929,226,1013,-286,-928,-1117,-496,403,798,-186,-206,-335,-294
382,198,962,-77,-55,-175,394,208,965,-82,-227,-304,416,241,947,-101,-463,-402,432,269,866,-104,-653,-487,456,329,788,-75,-689,-492,495,514,688,-132,-587,-412,515,857,518,-84,-326,-55,518,1352,433,659,124,769,407,1802,548,1307,634,2020,15,1989,836,2386,988,3475,-288,1940,1173,3158,1093,4331,-434,1648,1399,2882,1065,4273,-543,1252,1400,2245,768,3815,-618,743,1349,1783,394,3145,-587,248,1285,1286,105,2262,-534,-40,1228,826,50,1327,-452,-249,1244,223,356,225,-502,-276,1327,-305,646,-784,-773,-97,1592,-798,625,-2063,-1229,391,1857,-1193,-386,-3389,-1466,1224,1860,-1868,-1537,-4402,-1455,1719,1727,-1978,-2580,-4842,-1184,2138,1416,-2061,-3689,-4375,-908,2233,1009,-2243,-3996,-3446,-624,1966,586,-2029,-3459,-2386,-434,1689,315,-1516,-3042,-1597,-236,1363,67,-902,-2376,-979,-25,1136,-102,-407,-1691,-524,164,1022,-191,80,-926,-270,314,934,-180,403,-182,-16
302,371,908,-120,-325,-261,314,379,868,-76,-393,-280,314,385,833,15,-460,-298,335,402,809,18,-421,-304,363,414,797,-11,-323,-297,395,428,796,2,-279,-280,432,429,805,-1,-222,-224,446,417,831,15,-220,-175,443,418,835,-2,-295,-178,480,517,765,-106,-358,-153,574,896,518,15,-199,442,611,1344,291,770,170,1351,505,1773,235,1661,695,2647,289,2013,470,2548,919,3550,181,2012,801,3212,622,3963,142,1816,986,3235,500,3768,21,1535,1132,2978,463,3415,-186,1044,1250,2411,307,2777,-283,606,1288,1691,161,1928,-331,225,1309,856,263,989,-346,11,1345,135,458,-38,-451,25,1521,-719,772,-1322,-753,197,1813,-1653,743,-2679,-1270,774,2168,-2620,32,-3998,-1584,1436,2322,-3351,-847,-4696,-1511,1831,2149,-3254,-1951,-5146,-1037,2050,1724,-2954,-2786,-4890,-694,1952,1317,-2438,-2709,-3818,-370,1715,891,-1717,-2651,-2640,-197,1404,573,-1231,-2114,-1572
694,805,408,169,230,310,680,1088,357,638,391,747,652,1377,340,1095,670,1286,518,1699,442,1783,1000,2151,233,1906,694,2523,1338,3109,-78,1822,985,2883,1488,3642,-262,1552,1239,2796,1204,3766,-393,1228,1316,2422,855,3473,-515,757,1325,1974,491,2909,-574,310,1304,1674,203,2171,-633,32,1343,1147,162,1175,-692,-67,1428,329,490,-64,-952,142,1620,-480,914,-1683,-1343,605,1878,-1152,606,-3255,-1885,1313,2128,-1793,-728,-4326,-2071,2075,2134,-2494,-2462,-4893,-1776,2535,1761,-2947,-3527,-5207,-1125,2511,1191,-2476,-4364,-4312,-744,2222,788,-2184,-3888,-3027,-385,1823,387,-1357,-3392,-1988,-196,1460,170,-858,-2532,-963,-88,1099,-18,-481,-1382,-288,40,868,-122,-96,-668,-63,232,724,-179,231,62,-33,361,681,-127,557,680,-82,458,699,21,1008,1209,-152,529,703,157,1167,1591,-118,569,713,298,1264,1898,-17,594,700,420,1225,2152,129,544,685,543,1172,2374,230
549,630,449,-1598,-1461,-1230,656,723,248,-1045,-1475,-1109,827,876,-11,-310,-1242,-719,880,1034,-378,1071,-421,304,696,1064,-420,2430,255,943,455,1008,-250,3159,1209,1033,176,1005,12,3468,1968,751,-115,1209,356,3474,2360,290,-314,1260,581,3175,2159,-219,-390,1322,639,2756,1294,-819,-250,1368,770,2194,1216,-1077,-195,1285,1119,1228,1133,-924,-330,1393,1452,170,442,-740,-836,2185,2025,-1674,-1171,82,-1262,2670,1760,-3337,-2944,45,-1182,2643,1630,-4135,-3515,-108,-1112,2672,1234,-4817,-4211,-410,-943,2689,709,-4884,-4813,-299,-706,2324,10,-4115,-4732,80,-533,1888,-345,-3120,-3696,535,-371,1505,-542,-1950,-2632,847,-240,1139,-677,-1299,-1608,739,-102,752,-830,-737,-709,504,51,538,-863,-283,-201,141,221,423,-813,64,196,-214,336,431,-706,229,470,-508,450,436,-601,360,740,-698,523,408,-527,391,1097,-830,603,406,-476,505,1394,-906,683,414,-370,637,1872,-861
445,-540,761,311,-393,159,435,-493,737,262,-317,70,415,-430,751,172,-235,52,433,-327,780,148,-183,118,412,-241,875,199,-56,290,429,-35,1057,651,-161,752,395,217,1191,1053,-473,1390,279,426,1405,1581,-1055,2152,136,538,1634,2147,-1493,2936,-132,530,1821,2702,-1933,3833,-358,328,1931,2780,-1923,4220,-616,-31,1743,2263,-1849,4006,-783,-341,1450,1998,-1809,3390,-867,-775,1182,1480,-1286,2641,-898,-1007,958,736,-493,1326,-880,-1009,873,41,511,226,-1058,-949,969,-564,1798,-820,-1347,-817,1326,-718,2533,-1951,-1596,-532,1848,-785,2613,-3332,-1632,-222,2262,-1057,2313,-4298,-1450,215,2490,-1439,1418,-4919,-1030,739,2404,-1663,125,-5223,-503,992,1875,-1771,-590,-4458,-239,980,1435,-1760,-852,-3521,-26,921,971,-1199,-1051,-2702,111,823,642,-675,-1031,-2019,305,776,363,-328,-594,-1221,426,708,183,-29,-196,-506,468,665,138,197,172,-76,526,578,204,484,703,324
236,-215,874,290,-164,-292,286,-72,903,370,-122,45,278,77,921,655,-121,453,251,291,965,1193,-202,783,235,595,1045,1536,-108,1320,121,813,1088,1623,105,2025,-75,1015,1174,2008,104,2819,-294,1024,1251,2126,212,3390,-397,831,1248,2072,85,3501,-386,611,1171,1960,-76,3256,-398,308,1156,1981,-62,2766,-498,47,1297,1467,552,1966,-629,-140,1381,825,589,928,-866,-48,1559,-12,837,-425,-1297,145,1828,-731,623,-1727,-1788,626,2040,-1165,-756,-3230,-2008,1328,2104,-1889,-1640,-4237,-1914,2110,2122,-2175,-2775,-4867,-1537,2477,1742,-2535,-3555,-4366,-1156,2293,1258,-2317,-3781,-3368,-920,1966,862,-1717,-4063,-2340,-750,1563,434,-1299,-3868,-1461,-569,1221,51,-914,-3295,-1052,-355,954,-331,-587,-2365,-976,-157,860,-574,-332,-1337,-857,-20,833,-627,-161,-197,-660,124,835,-470,269,848,-509,293,862,-226,578,1596,-365,420,845,17,686,2317,-117,541,786,210,691,2802,95
241,51,972,-669,-470,-1167,264,172,920,-563,-471,-1097,300,332,882,-546,-364,-916,276,494,923,-391,-176,-521,245,604,987,-153,-198,-33,212,620,1009,-142,-291,511,192,445,1064,-84,-431,962,93,301,1125,-75,-670,1303,72,-45,1122,163,-936,1648,99,-291,1018,384,-1313,1765,199,-614,762,814,-1260,1846,262,-856,541,945,-975,1742,295,-1046,304,842,-589,1447,313,-1224,73,422,-59,957,209,-1372,57,-136,813,183,90,-1605,245,-670,1421,-588,-113,-1949,771,-1120,1936,-1759,-354,-2188,1228,-1307,1670,-3111,-527,-2154,1718,-1695,1021,-4244,-737,-1752,1964,-1953,45,-4889,-742,-1097,1971,-1665,-702,-4891,-574,-532,1691,-1294,-1328,-4372,-516,-45,1368,-913,-1534,-3605,-425,329,1074,-617,-1481,-2669,-382,604,788,-315,-1230,-1810,-265,760,496,-31,-789,-988,-121,826,324,143,-358,-353,36,825,261,356,115,257,192,789,258,582,470,858,355,609,264,774,760,1562
636,-460,587,480,211,129,640,-419,661,82,125,-25,582,-348,783,-63,142,-134,339,-285,1087,-277,17,-174,96,-388,1344,-111,-646,174,-38,-629,1402,364,-1621,535,-58,-810,1242,895,-2482,723,-114,-941,923,1453,-3230,858,-102,-1008,423,1625,-3631,834,-52,-1047,-81,1765,-3339,751,-21,-1038,-599,1631,-2379,649,-103,-1063,-863,1309,-1042,555,-288,-1115,-1026,537,701,394,-428,-1539,-972,-752,2198,322,-681,-2305,-599,-1572,3717,-123,-811,-2630,-65,-2339,4068,-1380,-641,-2505,133,-2964,3846,-2499,-437,-2231,317,-3050,3557,-2879,-318,-1800,610,-2800,2824,-2637,-202,-1471,811,-2175,1955,-2087,-55,-1134,842,-1397,996,-1524,94,-823,743,-683,234,-966,254,-657,595,-208,-258,-529,420,-536,430,299,-523,-134,553,-463,281,664,-617,145,711,-426,126,767,-654,188,779,-333,80,759,-517,244,880,-333,-1,787,-467,422,923,-325,-5,748,-183,546,956,-374,35,641,63,654
862,-614,-71,-473,182,99,909,-588,-6,-417,242,113,936,-544,114,-390,262,70,931,-517,223,-306,233,0,873,-530,325,-46,371,57,698,-688,578,94,431,135,294,-1212,955,594,-151,214,-102,-1620,768,1676,-2245,196,-235,-1748,319,2203,-3303,-120,-349,-1667,-132,2442,-3572,-516,-424,-1512,-504,2354,-3532,-610,-414,-1320,-1016,2075,-2816,-556,-408,-1114,-1513,1770,-1360,-344,-441,-1214,-2078,432,677,-186,-626,-1961,-2142,-1164,2660,-262,-993,-2883,-1827,-2549,3993,-1166,-1030,-3504,-1235,-3438,4667,-2500,-810,-3611,-620,-3546,4542,-3741,-655,-3296,-46,-3110,3825,-4134,-673,-2715,585,-2165,2743,-3948,-638,-1944,845,-902,1452,-3343,-522,-1248,845,-24,474,-2644,-330,-615,761,561,-248,-1729,-109,-212,656,834,-542,-921,118,92,543,900,-634,-321,303,269,476,807,-588,53,467,349,424,668,-454,426,595,413,418,701,-482,757,733,341,274,707,-958,1096,977,150,-22,858,-988,1245
895,-555,121,-292,249,241,849,-552,223,-236,201,182,808,-528,344,-140,228,172,725,-540,533,-45,261,216,515,-737,828,61,129,212,181,-1144,1031,888,-850,433,-109,-1519,815,1850,-2392,629,-312,-1816,292,2610,-3766,593,-376,-1742,-133,2726,-4163,70,-426,-1489,-446,2600,-3786,-231,-359,-1237,-844,2119,-3173,-157,-222,-1130,-1189,1638,-2118,-20,-231,-1063,-1431,942,-428,141,-343,-1265,-1684,-317,1267,244,-681,-1894,-1699,-1721,3173,132,-1083,-2603,-1406,-2851,4208,-442,-1038,-2907,-761,-2944,4696,-1355,-778,-2647,-384,-2877,4154,-2264,-522,-2249,10,-2507,3482,-2488,-384,-1822,393,-2053,2533,-2502,-230,-1361,611,-1333,1430,-2061,-58,-989,656,-692,544,-1512,112,-725,622,-176,-5,-975,284,-497,544,276,-405,-515,448,-326,454,543,-720,-228,630,-206,337,782,-821,85,766,-151,231,932,-784,343,913,-134,116,911,-694,476,1022,-144,35,752,-496,501,1080,-151,9,589,-279,502
845,-585,107,-84,133,82,843,-597,160,-103,229,71,825,-606,224,-97,219,13,811,-581,260,-59,183,-38,811,-535,305,45,100,17,839,-474,377,109,138,86,812,-408,541,143,359,226,613,-474,831,109,360,287,174,-916,1291,451,52,812,-378,-1599,1537,1245,-1218,1122,-812,-2044,1150,2037,-3084,1035,-991,-2117,419,2495,-4138,769,-900,-1799,-300,2456,-4331,264,-685,-1435,-740,2254,-3527,312,-449,-1186,-1183,1881,-2393,491,-227,-1135,-1655,1249,-819,371,-144,-1254,-1885,447,886,132,-276,-1680,-1818,-562,2540,-316,-590,-2129,-1593,-1369,3512,-823,-936,-2635,-1290,-2104,4084,-1468,-1087,-2984,-1095,-2582,4365,-2042,-1210,-3271,-901,-2847,4549,-2554,-1373,-3353,-396,-2802,4386,-2947,-1378,-2965,297,-2480,3402,-3299,-1180,-2306,700,-1879,2172,-3128,-743,-1587,743,-1420,900,-2560,-362,-1106,714,-1079,365,-1819,-30,-787,715,-739,222,-979,204,-617,745,-482,212,-437,366,-517,759,-330,102,-211
478,-638,750,-165,652,275,103,-996,1141,232,-105,412,-188,-1444,1105,1197,-1346,926,-427,-1722,799,1692,-2723,939,-535,-1824,284,2028,-3702,668,-573,-1713,-97,2218,-3859,384,-519,-1559,-463,2158,-3877,133,-442,-1328,-750,1951,-3552,-92,-279,-1149,-1177,1380,-2886,-38,-139,-994,-1520,995,-1545,26,-155,-1013,-1719,247,186,94,-388,-1389,-1809,-776,1992,-5,-765,-2049,-1705,-1631,3612,-355,-1117,-2750,-1425,-2669,4535,-1416,-1156,-3204,-1109,-3254,5019,-2220,-1111,-3284,-501,-3207,4741,-2820,-1029,-3022,169,-2856,3707,-3166,-801,-2394,640,-2045,2108,-3107,-473,-1760,727,-1463,889,-2703,-142,-1202,677,-1065,286,-2080,29,-853,710,-799,212,-1502,128,-574,739,-468,220,-959,202,-369,777,-120,343,-476,350,-204,781,92,259,-69,550,-116,722,168,164,181,737,-73,659,184,140,415,802,-89,625,128,156,594,877,-207,598,183,125,835,929,-317,567,182,20,716,960,-351,495,202,-75,559
748,-459,574,-19,42,111,582,-434,797,224,102,218,261,-507,1087,610,-307,624,-6,-715,1086,829,-1428,835,-236,-949,816,1269,-2542,1298,-340,-1256,466,1134,-3347,1277,-348,-1340,38,1126,-3676,778,-323,-1241,-339,1224,-3387,669,-280,-1161,-667,1131,-2867,828,-214,-1137,-890,1091,-2202,832,-256,-1098,-1145,903,-1304,884,-314,-1241,-1452,661,-238,892,-583,-1721,-1671,69,1585,480,-1032,-2387,-1847,-365,3341,-551,-1488,-2958,-1724,-1699,4308,-2126,-1674,-3413,-1403,-2391,4931,-3425,-1622,-3274,-784,-2589,4990,-4071,-1542,-2773,71,-2138,4044,-4005,-1344,-2028,514,-1212,2358,-3449,-888,-1298,562,-468,796,-2505,-470,-776,568,-145,70,-1699,-127,-419,605,-37,-228,-925,97,-223,653,47,-243,-409,284,-81,694,65,-317,-90,460,-6,683,139,-353,103,648,33,646,183,-379,266,811,5,607,284,-257,472,918,-5,577,324,-194,470,983,12,532,290,-285,237,988,65,459,319,-334,101
956,-321,62,-128,-52,76,908,-290,116,-121,27,171,896,-297,180,-99,76,313,899,-275,268,-73,143,375,854,-257,411,-14,323,535,696,-228,589,135,508,709,282,-684,951,-48,143,783,-172,-1411,1109,1151,-1040,1625,-550,-1923,733,1790,-2900,1626,-540,-2016,131,2054,-3917,764,-438,-1764,-274,2199,-3728,-154,-289,-1401,-697,1912,-3350,-561,-89,-1109,-1082,1597,-2396,-445,41,-890,-1455,1151,-1361,-130,91,-947,-1744,236,-37,72,64,-1494,-2042,-1353,1788,-261,-122,-2418,-1907,-2686,3369,-865,-160,-3267,-1336,-3912,4246,-2193,-22,-3308,-748,-3931,4025,-3203,54,-3025,-119,-3320,3367,-3516,-60,-2565,424,-2370,2484,-3400,-191,-1899,726,-1282,1331,-2926,-185,-1300,771,-516,498,-2309,-102,-750,712,-27,-145,-1632,9,-373,664,159,-457,-1083,136,-44,629,227,-657,-648,247,210,602,138,-784,-346,332,337,587,11,-795,-28,627,282,522,76,-740,545,892,172,419,209,-448,884
879,-347,541,-161,315,524,739,-357,718,117,270,526,491,-449,864,272,114,385,159,-973,1115,890,40,889,-218,-1406,1132,1622,-1344,1120,-436,-1817,651,2576,-2919,1496,-433,-1958,220,3125,-3768,1155,-394,-1821,-141,3245,-4095,822,-272,-1616,-487,2969,-3911,530,-8,-1477,-1268,2735,-2836,378,-49,-1201,-1380,1729,-1340,118,-104,-1162,-1537,480,231,99,-229,-1783,-1633,-1356,1977,-12,-542,-2699,-1691,-2429,3605,-535,-941,-3538,-1488,-3603,4467,-1710,-1106,-4022,-1094,-3494,5017,-2803,-1211,-3825,-446,-2986,4752,-3829,-1304,-3263,304,-2028,3822,-3975,-1132,-2328,665,-728,2010,-3401,-793,-1546,666,74,830,-2653,-458,-866,608,428,0,-2019,-222,-412,569,465,-310,-1532,-30,-21,580,426,-465,-1010,148,220,581,394,-521,-357,363,297,558,257,-515,168,544,341,550,142,-551,344,714,344,520,129,-484,541,855,270,441,131,-447,668,955,160,396,136,-365,782,1016,3,315,192,-252,833
578,-454,766,312,402,265,125,-633,1086,710,-288,491,-164,-1120,975,1435,-1634,1174,-251,-1736,473,2057,-2986,1258,-241,-1802,42,2330,-3625,690,-182,-1526,-439,2378,-3684,219,-8,-1199,-899,2029,-3218,-10,152,-1015,-1347,1867,-2183,-16,230,-950,-1599,763,-775,-139,292,-1171,-1844,-461,789,-291,218,-1723,-1901,-1576,2841,-658,136,-2513,-1732,-3102,3968,-2054,118,-3033,-1107,-3816,4365,-3380,210,-3102,-476,-3722,3772,-4148,-103,-2831,277,-3102,2993,-4253,-391,-2290,789,-2019,1989,-3443,-344,-1514,819,-837,835,-2470,-149,-798,705,-297,39,-1836,12,-377,663,-180,-241,-1200,145,-121,700,-165,-329,-701,220,1,763,-173,-402,-446,302,91,812,-98,-533,-229,424,147,821,40,-610,28,581,159,770,189,-633,407,754,105,667,339,-542,735,857,28,588,367,-424,820,896,-19,503,410,-378,782,891,-60,467,418,-386,777,887,-101,427,480,-528,827,967,-164,284,498,-660,727
935,-168,342,71,-94,239,873,-185,459,180,-118,515,714,-243,606,476,99,839,452,-327,788,632,133,1109,80,-727,979,678,-1063,1207,-108,-1278,642,1080,-2635,1200,-259,-1540,210,1880,-3199,1223,-344,-1543,-141,1752,-3654,908,-300,-1412,-440,1648,-3429,540,-290,-1287,-624,1493,-2848,505,-257,-1222,-898,1301,-2190,482,-206,-1195,-1266,1035,-1135,409,-196,-1307,-1583,561,439,167,-384,-1707,-1702,-36,2448,-394,-678,-2140,-1646,-813,3774,-1342,-819,-2541,-1397,-1705,4627,-2468,-768,-2689,-1057,-2066,4882,-3228,-652,-2657,-549,-2127,4412,-3687,-639,-2524,4,-1822,3653,-3741,-661,-2118,498,-960,2446,-3421,-599,-1562,684,-236,1280,-2997,-477,-936,720,311,321,-2357,-310,-464,703,524,-285,-1676,-80,-76,636,650,-596,-913,167,186,569,546,-667,-353,385,310,535,322,-637,-30,591,366,506,196,-517,246,750,375,476,162,-448,427,882,325,427,197,-323,594,955,278,351,254,-293,613
732,-495,540,143,80,173,507,-656,766,383,-114,392,164,-1101,922,1056,-999,805,-119,-1540,700,1930,-2354,1100,-315,-1810,154,2594,-3552,1006,-352,-1735,-281,2705,-3813,562,-283,-1519,-657,2389,-3658,345,-168,-1303,-941,2002,-2880,194,-83,-1139,-1197,1608,-1926,124,-73,-1085,-1439,800,-429,98,-22,-1291,-1745,-472,981,-51,-170,-1827,-1871,-1697,2788,-268,-393,-2525,-1793,-2710,3978,-925,-521,-3103,-1534,-3402,4743,-2197,-557,-3211,-1144,-3484,4959,-2928,-765,-2971,-290,-2932,4376,-3231,-869,-2453,403,-1864,2978,-2985,-650,-1676,626,-591,1319,-2356,-287,-975,584,-89,257,-1869,-18,-518,573,-50,-85,-1446,161,-184,645,-115,-102,-1025,277,5,708,-115,-110,-659,402,120,734,-70,-93,-235,533,155,694,-60,-147,-30,636,169,667,-146,-73,75,688,171,706,-87,21,280,766,151,682,14,-12,397,832,119,632,95,-29,459,853,78,601,168,-43,537,866,28,535,206,-152,578
787,-549,384,112,136,585,622,-661,574,112,303,503,286,-938,947,525,64,393,49,-1145,972,1255,-967,456,-5,-1340,727,2016,-1965,727,24,-1473,408,2366,-2599,693,85,-1561,110,2561,-2828,539,132,-1541,-154,2695,-2871,332,184,-1350,-443,2570,-2758,111,284,-1122,-767,2094,-2537,-78,360,-934,-1097,1391,-1681,-116,408,-792,-1361,738,-386,47,501,-899,-1607,-253,1088,111,423,-1405,-1707,-1287,2907,-113,82,-2174,-1516,-1960,4049,-822,-285,-2816,-889,-1999,4604,-2369,-404,-2902,-522,-1664,4311,-3461,-559,-2758,-104,-1297,3775,-4070,-836,-2407,374,-737,2999,-4071,-936,-1798,714,-40,1792,-3398,-759,-1198,766,478,825,-2560,-504,-685,706,573,121,-1921,-319,-340,703,502,-182,-1418,-153,-82,718,383,-291,-913,-23,69,750,246,-342,-547,113,149,772,72,-316,-252,233,182,823,-29,-332,-39,355,182,810,-67,-367,84,456,175,803,-83,-373,196,526,159,777,-103,-344,289
941,-201,282,-27,-137,-3,890,-183,345,-58,-95,30,792,-192,470,0,-29,190,659,-212,606,211,-115,466,523,-271,707,386,-301,744,335,-508,801,665,-831,1172,103,-973,818,1098,-1621,1670,-174,-1479,604,1669,-3049,1830,-299,-1740,148,1918,-4039,1404,-313,-1698,-231,2018,-4063,496,-362,-1536,-509,1980,-3903,0,-310,-1274,-882,1854,-3471,-105,-304,-1146,-1085,1677,-2419,186,-353,-1168,-1248,1145,-928,283,-486,-1387,-1408,601,846,284,-810,-1814,-1475,-198,2714,-9,-1265,-2431,-1401,-901,4024,-850,-1643,-3016,-1256,-1924,4718,-2342,-1758,-3380,-920,-2322,5164,-3691,-1631,-3222,-380,-2173,4712,-4384,-1434,-2758,236,-1542,3608,-4413,-1129,-2099,557,-643,2132,-3921,-712,-1329,580,52,871,-3276,-388,-734,567,312,222,-2594,-139,-253,589,275,-87,-1968,25,33,651,192,-200,-1439,166,237,704,221,-203,-886,273,387,726,276,-361,-453,388,476,671,336,-550,-109,558,506,559,428,-559,198
658,-86,722,765,-173,-133,684,61,731,780,-134,68,683,162,703,576,58,84,687,250,688,476,215,36,672,360,665,473,313,-3,649,488,664,658,481,157,601,608,615,922,575,343,515,700,630,1172,794,641,442,734,650,1260,892,866,339,781,710,1385,1043,1117,234,834,769,1491,1121,1371,147,807,797,1495,1181,1551,77,721,838,1337,1149,1587,24,556,884,1207,1065,1507,4,306,952,991,897,1165,29,89,1047,700,697,682,58,-85,1218,396,320,108,28,-179,1368,-119,-147,-628,-194,-190,1688,-1142,-672,-1933,-454,-16,2055,-1598,-1518,-2909,-683,307,2367,-1408,-2503,-3463,-868,571,2640,-1343,-3680,-3422,-991,802,2499,-1131,-4557,-2952,-1103,1069,2009,-948,-5000,-2363,-1181,1154,1422,-210,-4735,-1449,-1040,1130,672,172,-3943,-583,-864,1035,221,251,-2984,-46,-612,847,-186,340,-2118,389,-379,653,-469,388,-1403,539,-172,506,-652,328,-743,479
639,558,600,218,350,427,577,703,606,513,462,589,434,845,659,747,612,960,270,920,749,1050,721,1341,82,885,905,1398,877,1745,-35,804,1080,1613,914,1976,-94,687,1196,1770,857,2053,-103,564,1270,1737,660,2017,-44,373,1241,1674,420,1996,76,109,1153,1389,385,1965,193,-194,1124,1067,444,1637,289,-472,1078,712,423,1062,309,-559,1043,383,328,227,278,-523,1114,-249,193,-744,235,-489,1301,-851,-108,-1686,66,-287,1652,-1451,-567,-2728,-41,-24,2146,-1712,-1189,-3262,-176,294,2565,-1516,-2441,-3209,-385,645,2502,-1399,-3822,-2746,-568,919,2134,-1183,-4541,-2138,-649,1095,1459,-800,-4669,-1461,-632,1096,907,-349,-4111,-875,-580,1024,381,54,-3429,-266,-516,860,-78,399,-2705,193,-390,637,-482,525,-1824,342,-249,477,-714,436,-1064,332,-64,368,-804,294,-291,305,137,290,-779,428,338,80,305,270,-746,497,873,-251,382,320,-689,132,1260,-321
428,409,813,199,209,474,458,403,811,164,160,410,492,471,772,217,81,363,539,556,720,342,-41,289,556,615,624,455,-90,323,564,750,537,693,11,400,537,836,444,1120,211,482,459,892,360,1396,478,585,395,948,305,1555,792,789,328,956,342,1557,1121,914,265,917,507,1433,1277,855,204,816,658,1262,1321,838,148,648,766,1000,1297,730,115,417,895,701,1178,448,102,237,1050,213,847,63,33,93,1265,-466,269,-582,-125,122,1596,-1129,-444,-1525,-359,335,2037,-1631,-1357,-2414,-609,774,2445,-1330,-2982,-2860,-820,1240,2531,-1465,-4078,-2403,-923,1666,2258,-1663,-4783,-1345,-925,1754,1721,-1419,-5144,-508,-833,1647,1077,-753,-4796,242,-777,1442,518,-241,-4093,889,-714,1134,16,181,-3221,1235,-623,781,-320,352,-2459,1291,-519,392,-642,453,-1664,1046,-433,136,-819,512,-850,708,-260,39,-941,536,30,283,-43,33,-884,348,656,-133
605,536,637,-101,91,18,582,582,651,-163,103,102,552,580,663,-163,296,106,544,509,657,-582,252,33,527,457,663,-746,168,18,514,413,693,-666,26,-100,533,447,666,-498,-62,-187,532,605,626,-175,20,-93,510,772,551,121,156,168,407,923,529,510,339,637,263,1003,556,969,598,1118,141,980,619,1319,834,1489,21,943,721,1572,1072,1693,-58,863,859,1724,1319,1774,-87,731,1018,1721,1467,1768,-78,607,1095,1619,1461,1705,-16,389,1124,1481,1339,1547,72,192,1164,1257,1091,1101,176,32,1198,867,638,455,194,-50,1248,399,140,-263,125,-94,1363,-194,-438,-1102,-14,-72,1558,-669,-1118,-2170,-323,223,1918,-984,-1974,-3137,-599,613,2323,-613,-2979,-3205,-842,851,2454,-298,-3972,-2542,-1057,1006,2306,-58,-4723,-1678,-1244,1088,1864,344,-5052,-903,-1328,1119,1167,710,-4736,-160,-1214,1011,528,844,-4068,351,-972,820,-19,917,-2894,776
483,197,848,-186,-80,-7,466,338,821,97,98,137,418,523,857,489,223,409,316,720,848,1171,500,822,193,761,791,1630,661,1188,15,796,750,2053,984,1427,-51,832,786,1964,1236,1575,-204,850,811,1994,1411,1829,-211,791,828,1871,1517,1947,-213,733,826,1737,1743,1808,-106,539,952,1354,1675,1576,-78,362,1024,912,1485,1242,-16,160,1172,430,1246,651,24,-58,1337,-116,913,96,-5,-246,1530,-921,387,-796,-268,-278,1818,-1516,-225,-1874,-702,-37,2280,-1233,-1324,-3178,-1014,356,2405,-709,-2830,-3289,-1026,637,2308,-964,-4074,-2699,-895,696,2053,-1183,-4732,-2337,-912,914,1529,-560,-4837,-1814,-878,1009,784,-21,-4370,-922,-700,945,227,-160,-3445,-299,-530,850,-136,-202,-2584,84,-394,799,-431,-72,-1842,325,-219,685,-641,50,-1000,448,-43,575,-751,59,-360,417,155,488,-765,-37,226,396,342,451,-670,-34,729,346,515,431,-511,39,1095,286
504,-163,840,-322,-57,592,503,-183,844,-130,-69,557,493,-145,847,1,-25,457,516,-27,888,120,24,317,509,159,913,512,71,281,422,442,925,832,34,472,301,595,926,921,-89,864,158,588,946,1086,-74,1378,30,488,988,1094,-57,1791,-49,301,1060,977,125,2039,-141,91,1132,784,148,2191,-134,-190,1118,554,-66,2235,-69,-509,1019,531,6,2099,-4,-887,945,489,65,1750,119,-1007,803,469,12,1230,116,-1134,846,400,336,596,45,-1104,975,226,482,-357,-110,-1062,1119,-261,532,-1425,-382,-1088,1647,-873,482,-3057,-619,-899,2186,-1268,-369,-4133,-753,-657,2411,-1719,-1773,-4825,-810,-218,2223,-1926,-2609,-4837,-669,40,1821,-1734,-3082,-4098,-513,210,1341,-1300,-2991,-3361,-371,450,947,-882,-2573,-2539,-277,660,614,-554,-2129,-1857,-189,817,272,-207,-1539,-1173,-82,883,2,31,-931,-592,45,876,-146,117,-363,-123,226,805,-174,112,203,285
580,-238,754,-29,7,-371,573,-135,774,170,49,-345,566,133,832,452,27,-198,478,383,878,835,-19,167,356,508,891,1208,-1,665,192,562,946,1645,192,1229,17,555,1063,2124,467,1886,-80,464,1210,1917,557,2346,-88,274,1282,1805,528,2510,-56,22,1224,1587,424,2568,-4,-233,1145,1271,469,2259,59,-499,1055,770,485,1731,172,-699,963,326,635,955,219,-744,990,114,760,155,221,-783,1010,-410,745,-651,145,-906,1109,-837,692,-1499,-69,-1071,1268,-909,687,-2443,-268,-1086,1709,-891,461,-3417,-564,-956,2134,-747,-563,-4331,-762,-758,2276,-899,-1999,-4680,-827,-518,2022,-917,-2866,-4596,-826,-197,1605,-689,-3210,-4169,-717,119,1211,-502,-3088,-3559,-585,441,814,-342,-2601,-2687,-500,630,473,-319,-2107,-1761,-376,794,215,-264,-1529,-935,-179,903,76,-154,-1040,-285,105,924,-15,-16,-542,271,396,846,-15,88,-232,466,570,776,20,131,-61,421
633,152,752,-9,-61,256,610,190,761,208,-105,549,581,238,788,195,-54,748,487,240,891,10,85,1012,323,62,1041,-27,-52,1294,195,-155,1125,189,-490,1560,142,-366,1115,405,-890,1719,112,-607,964,677,-1066,1833,115,-750,804,875,-1194,1751,155,-867,667,1045,-1082,1625,187,-947,515,1135,-922,1545,232,-1025,363,1007,-650,1307,273,-1163,253,851,-241,910,295,-1271,231,448,270,348,160,-1406,313,-42,770,-346,91,-1555,513,-559,1247,-967,-152,-1724,952,-722,1718,-2389,-422,-1638,1344,-1059,1400,-3552,-503,-1421,1583,-1309,920,-4234,-506,-1156,1645,-1648,120,-4471,-488,-851,1542,-1932,-555,-4569,-421,-596,1453,-2025,-848,-4293,-324,-268,1322,-1743,-839,-3764,-248,71,1215,-1459,-901,-3115,-131,374,1054,-1033,-989,-2298,-14,568,876,-528,-919,-1530,103,670,676,-81,-771,-904,239,715,457,225,-467,-341,375,707,331,284,-226,-1,508,694,266,284,96,252
358,386,947,909,-290,844,253,347,982,1341,-292,1407,156,262,1071,1719,-58,1848,97,172,1134,1937,12,2196,81,27,1182,2094,187,2337,118,-93,1207,2067,225,2179,173,-146,1148,1952,169,1843,249,-202,1056,1758,168,1292,342,-275,985,1340,229,804,427,-388,988,831,280,328,468,-435,1079,553,209,-227,465,-392,1184,143,149,-972,352,-342,1472,-264,-145,-1642,228,-219,1676,-380,-745,-2630,-279,142,2040,-482,-1680,-3031,-578,670,2116,-18,-2873,-2467,-741,994,1817,386,-3836,-1381,-814,1161,1148,324,-4215,-361,-796,1114,472,59,-4076,423,-689,975,-84,-105,-3513,670,-553,813,-509,36,-2524,694,-335,599,-747,96,-1602,754,-59,398,-849,126,-681,617,184,271,-833,106,-91,472,363,257,-760,17,359,342,495,301,-630,-51,676,214,615,326,-474,-106,848,88,701,332,-361,-143,905,33,778,321,-264,-223,959,8,852,303,-149,-318,974,-55
696,-23,724,176,243,149,671,82,765,664,327,165,628,197,772,1152,420,317,490,435,763,1526,589,669,374,582,799,1612,679,942,205,698,856,1936,694,1215,39,735,962,1932,771,1403,-37,654,1051,1926,786,1627,-62,533,1087,1911,896,1673,-24,406,1137,1679,943,1575,82,224,1155,1385,865,1267,205,56,1103,1089,748,922,352,-92,1053,643,596,434,410,-157,1092,153,410,-148,291,-206,1256,-487,19,-876,132,-212,1440,-940,-442,-1653,-67,-184,1930,-1639,-1176,-2554,-295,-69,2375,-1756,-2326,-3228,-447,181,2591,-1743,-3563,-3424,-510,418,2421,-1694,-4439,-3058,-553,683,1999,-1058,-4587,-2772,-490,768,1553,-414,-4339,-2191,-552,852,1041,170,-3989,-1696,-656,856,462,631,-3255,-913,-659,721,-76,859,-2444,-180,-515,522,-447,773,-1402,133,-323,446,-639,551,-594,215,-96,416,-684,341,193,174,97,436,-664,139,772,162,284,437,-594,-46,1192,171
420,306,872,-208,-74,-30,457,420,841,-112,-92,43,468,505,782,180,-111,349,438,672,723,601,-114,721,373,725,690,1312,75,999,259,800,645,1854,431,1290,175,811,663,2062,801,1508,84,930,745,2117,1217,1595,27,906,798,2140,1373,1578,4,890,812,2111,1429,1488,6,834,817,2015,1467,1333,23,699,846,1859,1331,1007,74,617,874,1377,1094,630,99,533,964,893,819,212,123,488,1116,614,371,-187,19,514,1279,284,-231,-389,-105,569,1512,-181,-1356,-354,-325,1030,1475,-655,-2596,-905,-579,1938,1412,-973,-3880,-874,-680,2273,1165,-972,-4616,405,-760,2120,634,-1164,-4819,1828,-740,1794,240,-1139,-4469,2352,-683,1400,-111,-878,-3835,2391,-634,1032,-407,-506,-3119,2109,-559,702,-696,-244,-2291,1683,-419,402,-882,-84,-1506,1323,-166,147,-925,12,-821,825,69,40,-943,-9,-380,301,246,62,-905,-13,-143,-103,396,137,-867,-7,-21,-313
319,987,32,280,151,39,302,1017,-93,352,404,116,213,1049,-225,490,729,167,97,1073,-288,650,1095,315,38,1133,-320,969,1570,460,-51,1172,-305,1158,1974,367,-159,1178,-222,1244,2366,289,-212,1172,-98,1282,2543,224,-253,1127,53,1091,2605,124,-216,1065,267,971,2418,48,-140,990,518,712,2005,-41,-55,834,780,503,1306,-161,-85,832,1154,487,495,-265,-162,946,1427,65,-780,-126,-522,1276,1504,-832,-2443,-372,-1068,1959,1328,-946,-3853,-391,-1312,2382,1060,-1055,-4600,775,-1313,2331,759,-1030,-4999,2026,-1215,2024,532,-886,-4884,2613,-998,1656,139,-538,-4399,2675,-849,1355,-125,-257,-3694,2605,-744,1008,-428,-9,-2905,2307,-639,711,-644,188,-2076,1933,-510,368,-811,353,-1273,1536,-367,106,-912,350,-655,1108,-199,-36,-968,246,-50,569,-24,-22,-925,203,466,0,128,22,-854,142,796,-398,235,84,-781,-28,1133,-760,332,183,-671,-137,1421,-927
360,999,-185,546,843,143,270,1054,-257,798,1093,199,120,1143,-271,1046,1468,217,-7,1229,-210,1272,1846,243,-82,1249,-79,1491,2181,303,-138,1251,38,1569,2293,331,-135,1192,161,1529,2274,323,-41,1096,427,1386,2254,289,96,985,651,1162,1867,150,229,862,812,803,1208,-6,284,804,928,394,510,-176,223,824,976,-165,-440,-375,79,900,1026,-746,-1414,-607,-223,1125,1025,-1095,-2589,-856,-526,1474,1024,-1485,-3570,-539,-705,1953,802,-1366,-4387,-192,-666,2107,644,-1400,-4491,902,-541,1956,306,-1229,-4463,1829,-385,1755,93,-1028,-4122,2462,-281,1432,-156,-796,-3654,2664,-273,1099,-403,-548,-3057,2487,-284,815,-586,-297,-2284,2090,-281,559,-746,-20,-1507,1613,-202,304,-823,118,-817,1148,-51,70,-838,121,-256,573,102,-29,-844,70,157,1,262,22,-815,-2,562,-646,394,109,-740,-138,837,-1030,538,210,-601,-480,1072,-1234,639,380,-439,-409,1377,-1404
420,1005,-177,176,527,115,331,1075,-240,357,850,253,210,1152,-259,460,1299,532,112,1220,-151,728,1740,617,16,1290,0,1052,2140,788,-84,1285,136,1316,2398,945,-100,1254,291,1339,2375,1146,-80,1102,398,1211,2123,1274,-22,902,549,1220,1896,1158,54,736,744,1179,1576,757,136,633,915,1003,1213,382,217,583,1097,718,629,-7,226,619,1176,227,-161,-274,193,708,1262,-597,-1190,-470,110,870,1340,-1310,-2272,-930,-125,1384,1468,-1915,-3537,-1306,-181,1909,1460,-1987,-4400,-826,-142,2269,1408,-1763,-4958,511,-374,2228,1182,-1470,-5036,1709,-579,1953,704,-1069,-4797,2234,-662,1556,198,-568,-4072,2299,-665,1180,-172,-212,-3234,2076,-603,782,-469,228,-2174,1683,-497,455,-647,493,-1250,1337,-361,141,-769,583,-415,967,-223,-77,-817,512,199,665,-56,-166,-820,401,817,204,136,-160,-781,402,1442,-239,433,-39,-546,375,1809,-625,693,107,-431,394,1674,-824
