t0_Ax,t0_Ay,t0_Az,t0_gyro_x,t0_gyro_y,t0_gyro_z,t1_Ax,t1_Ay,t1_Az,t1_gyro_x,t1_gyro_y,t1_gyro_z,t2_Ax,t2_Ay,t2_Az,t2_gyro_x,t2_gyro_y,t2_gyro_z,t3_Ax,t3_Ay,t3_Az,t3_gyro_x,t3_gyro_y,t3_gyro_z,t4_Ax,t4_Ay,t4_Az,t4_gyro_x,t4_gyro_y,t4_gyro_z,t5_Ax,t5_Ay,t5_Az,t5_gyro_x,t5_gyro_y,t5_gyro_z,t6_Ax,t6_Ay,t6_Az,t6_gyro_x,t6_gyro_y,t6_gyro_z,t7_Ax,t7_Ay,t7_Az,t7_gyro_x,t7_gyro_y,t7_gyro_z,t8_Ax,t8_Ay,t8_Az,t8_gyro_x,t8_gyro_y,t8_gyro_z,t9_Ax,t9_Ay,t9_Az,t9_gyro_x,t9_gyro_y,t9_gyro_z,t10_Ax,t10_Ay,t10_Az,t10_gyro_x,t10_gyro_y,t10_gyro_z,t11_Ax,t11_Ay,t11_Az,t11_gyro_x,t11_gyro_y,t11_gyro_z,t12_Ax,t12_Ay,t12_Az,t12_gyro_x,t12_gyro_y,t12_gyro_z,t13_Ax,t13_Ay,t13_Az,t13_gyro_x,t13_gyro_y,t13_gyro_z,t14_Ax,t14_Ay,t14_Az,t14_gyro_x,t14_gyro_y,t14_gyro_z,t15_Ax,t15_Ay,t15_Az,t15_gyro_x,t15_gyro_y,t15_gyro_z,t16_Ax,t16_Ay,t16_Az,t16_gyro_x,t16_gyro_y,t16_gyro_z,t17_Ax,t17_Ay,t17_Az,t17_gyro_x,t17_gyro_y,t17_gyro_z,t18_Ax,t18_Ay,t18_Az,t18_gyro_x,t18_gyro_y,t18_gyro_z,t19_Ax,t19_Ay,t19_Az,t19_gyro_x,t19_gyro_y,t19_gyro_z,t20_Ax,t20_Ay,t20_Az,t20_gyro_x,t20_gyro_y,t20_gyro_z,t21_Ax,t21_Ay,t21_Az,t21_gyro_x,t21_gyro_y,t21_gyro_z,t22_Ax,t22_Ay,t22_Az,t22_gyro_x,t22_gyro_y,t22_gyro_z,t23_Ax,t23_Ay,t23_Az,t23_gyro_x,t23_gyro_y,t23_gyro_z,t24_Ax,t24_Ay,t24_Az,t24_gyro_x,t24_gyro_y,t24_gyro_z,t25_Ax,t25_Ay,t25_Az,t25_gyro_x,t25_gyro_y,t25_gyro_z,t26_Ax,t26_Ay,t26_Az,t26_gyro_x,t26_gyro_y,t26_gyro_z,t27_Ax,t27_Ay,t27_Az,t27_gyro_x,t27_gyro_y,t27_gyro_z,t28_Ax,t28_Ay,t28_Az,t28_gyro_x,t28_gyro_y,t28_gyro_z,t29_Ax,t29_Ay,t29_Az,t29_gyro_x,t29_gyro_y,t29_gyro_z
931,-383,92,83,-52,-45,931,-376,86,92,-31,-25,937,-373,83,84,-29,-20,944,-370,76,73,-25,-11,953,-378,79,48,-16,-19,947,-375,78,37,-18,-27,946,-368,70,12,-12,-31,931,-371,35,-11,-14,-20,948,-358,-175,-84,48,43,959,-399,-397,-371,284,72,968,-529,-566,-793,551,-17,865,-644,-607,-1305,1114,-139,723,-746,-586,-1965,1578,-401,561,-886,-498,-2649,2016,-586,388,-1036,-449,-3295,2244,-788,248,-1163,-392,-3434,2514,-549,-56,-1217,-282,-3330,2677,-37,-509,-1424,-196,-3048,2744,829,-1511,-1968,548,-2204,2809,1784,-2238,-2321,909,-1378,29,899,-2646,-2883,666,222,-2447,71,-2484,-3613,-190,2159,-3758,-1308,-1989,-3573,-1616,3556,-4362,-3188,-1512,-2669,-2258,3722,-3582,-4167,-1030,-1649,-2102,2724,-2180,-4391,-708,-996,-1723,2218,-965,-3640,-483,-459,-1443,1437,-357,-2806,-356,-33,-1172,885,136,-1678,-208,192,-944,465,324,-715,25,376,-758,183,286,141
772,-668,137,-268,485,-40,720,-690,372,-331,311,-119,688,-673,450,-197,104,-119,677,-643,435,-17,-88,-89,691,-631,382,132,-201,-51,727,-632,283,291,-258,-8,777,-618,29,349,-242,35,847,-626,-351,46,52,-45,869,-671,-670,-500,539,-164,714,-747,-836,-1387,1175,-354,541,-935,-858,-2164,1703,-431,341,-1164,-751,-2894,2030,-467,177,-1376,-617,-3082,2323,-302,-56,-1544,-397,-3072,2587,14,-292,-1515,-112,-2641,2635,358,-487,-1551,139,-2526,2065,430,-674,-1833,569,-1913,1414,677,-735,-2267,844,-1039,71,175,-711,-2926,767,614,-1631,-781,-589,-3258,254,2416,-2980,-1938,-621,-3109,-823,3814,-3560,-3074,-591,-2605,-1448,3964,-3155,-3866,-544,-1684,-1675,3067,-2563,-4339,-406,-1028,-1545,2221,-1485,-3906,-319,-448,-1410,1578,-487,-2840,-222,-140,-1118,845,-62,-1911,-55,57,-841,352,153,-1005,134,229,-626,190,254,-250,319,332,-515,72,110,194,504,356,-450,140,108,634
609,-689,286,120,-276,32,659,-692,183,217,-192,80,661,-702,165,246,-119,97,671,-724,148,262,-132,114,683,-734,141,256,-130,120,696,-758,119,240,-135,114,714,-779,55,223,-93,108,774,-836,-164,131,-12,106,885,-932,-488,-151,260,-18,894,-1117,-751,-738,895,-303,818,-1320,-871,-1528,1555,-719,594,-1633,-808,-2580,2227,-1267,388,-1741,-686,-3051,2808,-1724,210,-1785,-502,-3293,3242,-2010,-26,-1689,-143,-2939,3103,-2035,-207,-1511,315,-2441,2487,-1897,-351,-1323,669,-1503,1652,-1181,-340,-1173,820,-686,750,-542,-311,-1160,865,54,-96,76,-195,-1398,907,822,-938,532,58,-1765,730,1921,-1816,707,318,-2119,276,3127,-2362,496,637,-2207,-511,4082,-2596,-117,892,-1790,-1281,4087,-2511,-995,854,-1029,-1625,3231,-1847,-1816,612,-464,-1484,2364,-1201,-1993,452,-86,-1194,1596,-575,-1625,379,114,-863,1140,-192,-1136,422,247,-700,758,-125,-623,555,297,-563,478,-37,-88
463,-1213,377,36,-577,-107,524,-1133,244,465,-829,-183,590,-1019,57,874,-956,-262,626,-906,-93,982,-893,-308,650,-828,-195,1010,-773,-319,659,-712,-285,826,-710,-365,671,-590,-384,548,-468,-282,653,-507,-440,197,-175,-112,643,-496,-489,-233,251,148,598,-515,-483,-809,802,330,551,-561,-472,-1304,1201,420,484,-732,-351,-1533,1663,753,371,-915,-121,-1488,1846,904,170,-1225,166,-1179,1778,1061,-138,-1710,500,-599,1176,987,-464,-2385,749,340,-380,224,-464,-2776,516,1729,-2221,-1416,-336,-2466,-400,3194,-3038,-2927,-292,-1746,-947,3355,-2734,-3488,-248,-1045,-1113,2674,-2039,-3729,-155,-490,-1039,1659,-1506,-3514,-168,-8,-968,941,-672,-2576,-91,214,-704,428,-252,-1422,63,259,-545,162,-136,-556,261,326,-410,66,-86,272,452,333,-384,39,-107,851,644,270,-351,13,-40,1353,799,177,-300,78,136,1748,949,3,-206,28,352,1994,952,-184,-129,169,595,2129,961,-361,-43,216,843,2161
724,-644,185,-200,216,-35,759,-636,162,-104,125,2,803,-621,107,-56,68,-1,830,-609,65,-52,64,-4,845,-600,30,-65,67,-11,886,-578,-55,-63,68,-13,938,-526,-204,-140,164,-21,968,-455,-375,-474,379,-37,1001,-453,-542,-1051,750,-107,955,-652,-650,-1781,1417,-134,802,-817,-558,-2277,2110,-226,570,-986,-346,-2207,2415,-154,214,-1183,13,-1614,2328,187,-216,-1352,353,-924,1810,268,-606,-1505,618,-246,714,178,-739,-1721,654,508,-680,199,-620,-2022,417,1602,-2288,-96,-397,-2150,-48,2891,-3246,-435,27,-2106,-879,3996,-3622,-717,433,-1819,-1375,3795,-3169,-1532,547,-1289,-1514,2991,-2442,-2543,460,-761,-1450,2481,-1460,-2549,316,-282,-1297,1858,-810,-2256,241,41,-1053,1223,-353,-1619,298,232,-841,848,-111,-907,441,310,-636,563,15,-228,618,324,-543,391,-69,130,756,252,-502,184,-42,345,834,231,-458,160,-7,452,835,201,-435,101,20,499
819,-612,-80,172,-103,19,819,-611,-88,132,-94,9,821,-611,-90,91,-78,1,822,-607,-89,63,-35,8,819,-611,-73,33,0,10,813,-614,-59,18,3,6,811,-614,-53,10,-3,6,812,-616,-48,6,3,8,811,-618,-41,8,8,6,809,-617,-39,8,7,4,808,-619,-40,14,13,8,809,-622,-39,17,14,13,812,-624,-39,16,12,11,808,-615,-44,9,8,7,805,-613,-53,-13,15,12,802,-615,-52,-20,39,28,804,-622,-53,-34,56,43,802,-626,-48,-33,85,61,801,-634,-46,-52,96,60,799,-636,-43,-69,98,51,800,-631,-60,-92,99,41,803,-629,-80,-152,111,22,808,-612,-134,-234,108,-21,790,-601,-189,-351,197,-16,751,-559,-262,-421,275,-25,684,-470,-398,-546,457,48,611,-428,-561,-934,901,251,467,-441,-680,-1742,1652,461,260,-575,-657,-2432,2350,895,-141,-902,-449,-2393,3137,2013
867,-526,-160,-18,46,36,872,-532,-152,-23,45,34,870,-532,-145,-24,38,23,865,-532,-142,-23,31,18,862,-536,-144,-28,24,16,861,-541,-144,-32,32,18,861,-544,-137,-32,37,18,861,-547,-134,-24,40,19,859,-544,-131,-22,35,14,861,-543,-135,-16,33,16,864,-541,-136,-16,37,16,862,-536,-137,-18,35,10,858,-520,-155,-36,23,0,847,-488,-244,-6,57,52,795,-440,-326,-16,290,218,717,-413,-457,-99,437,327,590,-378,-733,-407,821,605,455,-521,-1080,-1351,1741,783,391,-850,-1258,-2392,2637,806,268,-1189,-1192,-3147,3457,602,-318,-1821,-869,-3482,4085,875,-1557,-3053,314,-2491,3149,1005,-1919,-3772,349,-126,-46,-47,-1704,-3786,-530,2361,-2490,-2213,-1391,-3033,-1800,3676,-3183,-3624,-986,-1894,-2302,3761,-1804,-4024,-726,-1119,-1998,3334,-921,-3708,-578,-398,-1873,2579,-419,-3243,-464,99,-1351,1527,-28,-2035,-60,133,-1022,768,-139,-959
854,-580,-35,-27,-50,-26,862,-581,-53,-54,-52,-49,865,-576,-69,-95,-52,-77,865,-571,-88,-138,-41,-96,878,-571,-130,-170,-40,-110,942,-571,-253,-252,-21,-147,1084,-585,-526,-538,61,-319,1129,-575,-792,-1097,376,-575,1035,-582,-838,-1566,807,-567,925,-603,-785,-2180,1030,-672,827,-592,-704,-2784,971,-810,676,-544,-623,-3118,1052,-710,506,-520,-540,-3275,1122,-429,224,-564,-362,-3156,1326,195,-121,-637,-163,-2820,1166,1043,-411,-861,-117,-2542,806,1823,-738,-1279,-69,-2516,-83,2202,-842,-2186,47,-2135,-789,2058,-977,-3013,93,-1231,-2620,-537,-672,-3457,-753,988,-3525,-2582,-211,-3038,-1760,2839,-2973,-3806,-117,-2229,-2135,3264,-2142,-4264,-148,-1538,-1937,2660,-1090,-4376,-173,-1053,-1543,2261,-383,-3897,-104,-620,-1276,1665,-120,-3306,-101,-291,-966,1185,142,-2605,-72,45,-732,873,114,-1755,37,281,-585,685,17,-895,176,428,-520,561,-48,-215,368,498,-477,411,-71,418
749,-671,13,108,118,65,746,-677,19,56,81,48,743,-690,33,12,63,47,748,-700,39,-26,14,26,750,-695,31,-24,1,20,784,-697,-52,-42,-3,-3,864,-670,-280,-110,216,1,936,-664,-561,-458,713,-106,881,-724,-680,-989,1270,-268,763,-867,-714,-1713,1945,-464,642,-1027,-654,-2279,2501,-615,462,-1138,-482,-2591,2885,-815,227,-1248,-182,-2435,2961,-799,-126,-1356,219,-2016,2530,-689,-414,-1474,616,-1350,1776,-291,-573,-1604,887,-351,301,-36,-525,-1755,720,1024,-1639,295,-366,-1954,263,2218,-3010,469,-66,-1992,-397,3072,-3733,-26,204,-1645,-957,3213,-3658,-723,402,-1093,-1179,2856,-2727,-916,499,-746,-1102,2317,-1917,-930,542,-501,-859,1612,-1185,-861,608,-376,-670,1143,-784,-607,691,-289,-520,705,-462,-380,759,-240,-416,469,-274,-139,850,-233,-361,225,-129,60,899,-281,-305,59,4,198,927,-312,-258,-50,79,248,933,-334,-209,-143,102,265
866,-532,-106,-8,-14,16,864,-533,-109,-6,2,13,861,-538,-106,-4,11,12,863,-543,-107,3,13,11,863,-542,-113,0,10,7,863,-538,-131,-4,10,3,863,-532,-174,-31,24,2,869,-526,-335,-129,125,22,904,-525,-608,-306,407,54,881,-559,-872,-909,1037,44,779,-710,-958,-1657,1747,19,630,-950,-921,-2633,2462,-86,480,-1161,-696,-3052,2941,-232,232,-1415,-298,-3140,3067,-419,-51,-1587,248,-2427,2675,-368,-250,-1605,669,-1598,1878,-455,-313,-1539,943,-440,541,-584,-227,-1530,865,905,-840,-466,-57,-1628,472,2373,-2034,-254,136,-1741,28,3325,-2569,-215,421,-1618,-636,3931,-2660,-391,614,-1186,-1125,3440,-2287,-706,720,-734,-1300,2618,-1471,-838,672,-485,-1084,1907,-712,-649,680,-337,-760,1079,-372,-376,721,-286,-526,548,-194,-137,791,-266,-337,218,-77,77,887,-277,-248,48,-8,201,947,-292,-198,3,79,254,973,-300,-154,-18,119,251
891,-493,-132,94,3,45,894,-484,-316,67,55,159,910,-506,-351,-218,168,173,903,-572,-98,-463,301,133,848,-609,194,-410,272,64,792,-617,242,-74,-28,36,785,-633,-100,416,-235,194,954,-674,-866,50,73,198,981,-885,-1388,-952,873,32,793,-1265,-1526,-2547,1940,-284,548,-1677,-1376,-3744,2905,-598,109,-1962,-1009,-4005,3906,-782,-292,-1972,-346,-3504,4012,-1113,-489,-1856,178,-2479,3396,-837,-542,-1628,670,-1321,2369,-596,-536,-1375,895,-483,1386,-481,-471,-1169,1009,360,415,-39,-359,-1119,957,999,-384,457,-306,-1252,914,1716,-1220,1025,-256,-1609,775,2514,-2156,1366,-163,-2141,396,3560,-3167,1360,110,-2440,-536,4291,-3914,633,397,-1988,-1348,3987,-3333,-345,441,-1409,-1498,3407,-2376,-801,435,-885,-1474,2550,-1596,-1003,441,-504,-1321,1621,-1012,-942,491,-263,-1162,1015,-538,-649,528,-129,-940,560,-74,-231,598,-106,-753,205,119,67,664,-154,-584,-8,258,326
892,-500,5,-9,-8,29,897,-505,1,-17,-3,38,894,-509,-3,-24,9,54,885,-511,-6,-26,32,62,877,-519,-3,-28,54,75,871,-529,6,-28,49,71,866,-529,10,-30,40,69,866,-538,12,-28,32,62,861,-538,13,-19,34,55,861,-546,12,-17,32,51,863,-549,9,-14,33,43,868,-553,-7,-34,22,28,887,-563,-80,-53,28,19,944,-580,-266,-208,51,-44,1092,-666,-670,-680,214,-211,1208,-869,-981,-1347,637,-414,1240,-1222,-1148,-2391,1248,-914,1014,-1509,-1063,-3251,1989,-1330,560,-1686,-808,-3948,2812,-1758,-52,-1722,-356,-3940,3567,-1731,-741,-1634,379,-3149,3580,-1558,-1167,-1484,893,-1786,1851,-651,-1125,-1329,963,-629,220,310,-928,-1586,933,346,-1499,993,-704,-2203,634,1740,-2826,1260,-392,-2638,-288,3391,-4030,1059,180,-2223,-1344,3615,-3964,105,634,-1438,-1746,3413,-2894,-400,797,-921,-1716,2828,-1894,-680,764,-561,-1465,2078,-985,-759
882,-517,15,-41,9,-2,881,-516,19,-66,24,0,885,-521,44,-77,49,5,880,-524,75,-55,45,0,873,-522,91,-7,3,-3,867,-518,81,38,-44,-6,868,-514,44,58,-80,-7,881,-508,-32,40,-68,-5,885,-512,-66,-55,10,3,889,-529,-33,-151,78,0,866,-540,-7,-173,104,-2,852,-544,-174,-225,52,-45,909,-524,-620,-691,146,-209,845,-581,-1082,-1554,979,-214,628,-714,-1237,-2678,1842,-311,379,-908,-1231,-3857,2282,-431,158,-1121,-1116,-4439,2517,-186,-244,-1458,-856,-4247,2802,913,-781,-1949,-407,-3874,2591,1553,-1262,-2648,271,-2732,1084,1249,-1331,-3138,336,-947,-1546,-617,-1059,-3338,-199,1390,-3127,-2376,-722,-3012,-1286,3258,-3436,-3375,-518,-2251,-1854,3616,-2784,-3997,-509,-1303,-1890,2937,-2145,-4523,-348,-679,-1610,1915,-1160,-3857,-181,-383,-1200,1564,-143,-2478,-11,-146,-967,1076,-172,-1776,160,72,-787,719,-91,-947,320,225,-661,534,16,-230
879,-482,-238,2,2,25,879,-482,-242,-1,13,21,879,-486,-241,-8,33,27,868,-485,-237,-9,45,34,858,-479,-243,-27,39,44,848,-466,-257,-50,79,74,830,-460,-265,-75,128,142,791,-430,-313,-89,170,211,715,-366,-450,-115,357,371,568,-336,-601,-238,725,624,404,-363,-710,-595,1178,926,242,-553,-822,-1158,1765,1207,135,-855,-876,-1794,2342,1321,11,-1262,-831,-2232,3089,1467,-270,-1572,-626,-2385,3642,1510,-894,-1896,-46,-2333,3848,1767,-1450,-2232,666,-1385,1837,1043,-1569,-2552,601,8,-838,-136,-1681,-2799,153,2002,-2940,-2187,-1615,-2509,-665,2986,-4052,-3551,-1172,-1885,-1113,2950,-3649,-3652,-894,-1390,-1142,2320,-2785,-3295,-580,-924,-1053,1831,-1740,-2574,-334,-562,-1009,1284,-873,-1723,-38,-359,-944,719,-132,-833,205,-274,-803,293,368,-62,437,-324,-596,-134,850,616,573,-417,-431,-481,1063,999,673,-507,-258,-587,1244,1368,688,-591,-115,-708,1319,1680
823,-703,-420,-124,96,-164,856,-702,-505,-398,238,-259,879,-702,-582,-720,437,-373,866,-704,-611,-1025,664,-442,823,-696,-604,-1355,839,-518,750,-646,-576,-1672,923,-578,633,-542,-499,-1985,942,-520,565,-502,-418,-2206,940,-300,499,-541,-289,-2267,1065,122,402,-586,-111,-2027,1203,608,281,-667,106,-1735,1164,1105,214,-836,258,-1416,866,1415,181,-1054,358,-1075,264,1425,196,-1284,340,-591,-319,1252,198,-1469,320,-159,-874,941,219,-1641,192,423,-1541,415,268,-1730,4,1011,-2085,-156,357,-1735,-319,1846,-2447,-731,485,-1642,-617,2214,-2449,-1315,561,-1411,-761,2212,-2043,-1826,550,-1057,-809,1979,-1672,-2138,480,-663,-704,1526,-1271,-2131,457,-374,-603,1164,-961,-1824,493,-197,-472,763,-668,-1297,572,-123,-389,536,-477,-846,638,-64,-323,342,-284,-419,732,-39,-286,222,-205,-58,838,-54,-276,93,-143,165,921,-125,-270,48,-28,323,969,-152,-251,54,46,388,978,-189,-233,0,49,392
865,-520,-163,143,-26,11,872,-528,-163,183,-51,3,884,-531,-172,207,-77,-14,891,-541,-177,233,-88,-41,910,-537,-234,218,-128,-107,951,-507,-366,64,-96,-213,989,-477,-509,-177,17,-315,998,-430,-625,-524,182,-385,965,-410,-656,-928,402,-371,906,-416,-619,-1266,558,-325,821,-409,-538,-1608,619,-284,742,-381,-451,-1864,572,-201,704,-387,-358,-2072,500,-39,681,-388,-272,-2091,463,167,664,-408,-184,-1990,493,443,676,-483,-107,-1822,553,727,645,-553,13,-1481,628,1052,575,-609,123,-1134,562,1296,472,-714,222,-868,318,1476,429,-892,228,-631,-78,1563,374,-1139,201,-342,-428,1510,363,-1350,146,-43,-929,1145,354,-1451,50,378,-1274,756,327,-1539,-66,686,-1560,241,333,-1600,-196,1023,-1804,-282,380,-1582,-367,1241,-2032,-1016,431,-1436,-557,1401,-1952,-1616,480,-1140,-686,1186,-1742,-2138,469,-867,-701,917,-1311,-2363,418,-577,-613,883,-944,-2279
888,-493,-243,12,54,87,906,-492,-306,-45,86,70,949,-488,-446,-176,178,16,962,-456,-632,-422,453,7,950,-478,-791,-875,746,-49,878,-584,-864,-1503,1128,-67,829,-739,-847,-2078,1442,-120,755,-822,-734,-2628,1640,-283,723,-948,-615,-2925,1866,-265,568,-1028,-379,-2926,2163,-163,346,-1092,-27,-2793,2255,-36,191,-1116,339,-2194,1927,81,48,-1150,560,-1426,1185,149,21,-1148,657,-757,418,144,8,-1182,678,-125,-355,115,96,-1367,636,632,-1045,134,200,-1501,423,1670,-1700,208,371,-1597,77,2600,-2209,226,565,-1563,-379,3097,-2461,-80,772,-1400,-741,3102,-2455,-557,869,-1099,-962,2844,-1865,-973,852,-784,-991,2445,-1333,-1183,735,-458,-887,1940,-872,-1169,655,-203,-750,1366,-593,-963,634,-79,-609,1018,-358,-570,679,-26,-482,675,-238,-192,758,-22,-390,442,-184,74,866,-67,-325,252,-130,295,939,-138,-270,178,7,462,963,-194,-204,344,235,643
869,-536,34,-52,54,29,867,-531,33,-66,80,37,862,-531,45,-76,97,48,861,-540,67,-71,95,50,857,-546,89,-48,73,51,855,-554,94,-23,17,43,859,-551,69,-1,-21,31,870,-551,46,-3,-6,34,867,-552,49,-13,6,23,865,-549,4,-34,22,-3,861,-529,-85,-125,95,-25,856,-525,-179,-307,238,-17,850,-541,-280,-582,421,-60,821,-565,-352,-960,641,-147,810,-592,-446,-1439,975,-242,787,-646,-509,-1988,1215,-351,769,-749,-520,-2367,1585,-303,646,-769,-425,-2664,1761,-283,509,-877,-279,-2623,1987,158,257,-915,-58,-2346,2120,603,-72,-1088,175,-2038,1865,1076,-367,-1300,414,-1617,1351,1350,-555,-1583,573,-1173,57,964,-595,-1794,549,-355,-1281,303,-458,-2030,291,830,-2655,-430,-84,-2093,-230,2072,-3247,-1017,239,-1888,-621,2745,-3047,-1497,379,-1464,-851,2865,-2481,-1925,384,-1015,-903,2544,-2021,-2148,363,-578,-802,1923,-1482,-1935
671,-764,41,85,11,-66,697,-765,1,3,82,-61,706,-772,-17,-69,162,-66,739,-778,-93,-174,244,-105,749,-783,-148,-313,394,-139,810,-823,-336,-554,618,-292,802,-856,-516,-1012,994,-466,732,-928,-649,-1555,1500,-644,627,-1092,-634,-2165,2045,-704,565,-1184,-543,-2607,2321,-932,502,-1272,-457,-3040,2484,-1191,311,-1295,-265,-2990,2797,-1056,50,-1329,204,-2308,2696,-596,-129,-1305,499,-1508,1935,-300,-207,-1196,665,-643,905,-1,-210,-1130,673,18,26,305,-177,-1220,658,616,-859,598,-87,-1398,502,1303,-1560,828,76,-1595,248,2043,-2319,862,335,-1645,-205,2773,-2905,687,551,-1531,-451,2929,-2881,347,673,-1289,-637,2874,-2612,-145,748,-1000,-759,2551,-2281,-448,770,-699,-758,2002,-1725,-672,772,-455,-727,1544,-1268,-673,760,-293,-614,1029,-678,-418,777,-254,-493,735,-266,-82,824,-261,-340,357,29,174,864,-307,-201,107,202,342,898,-374,-79,-71,293,400
829,-609,-45,39,-24,10,825,-604,-45,38,-24,2,822,-609,-45,33,-30,0,818,-610,-48,38,-28,-4,817,-612,-52,37,-30,-1,818,-610,-64,27,-24,-1,818,-613,-73,9,-8,3,835,-616,-136,-9,26,0,867,-622,-310,-130,189,-3,924,-638,-567,-389,430,-74,905,-692,-780,-915,920,-152,826,-856,-881,-1735,1447,-313,761,-1088,-871,-2552,1875,-512,650,-1189,-781,-3225,2203,-792,555,-1281,-672,-3629,2476,-877,333,-1396,-352,-3452,2898,-636,58,-1485,136,-3002,2702,-662,-155,-1438,587,-1823,1855,-294,-209,-1346,738,-802,816,49,-189,-1330,770,166,-320,312,-75,-1443,696,1120,-1306,574,29,-1622,482,2151,-2188,592,80,-1752,163,3025,-2838,514,253,-1812,-427,3701,-3200,220,509,-1549,-945,3380,-3054,-489,710,-1103,-1205,2755,-2208,-1074,700,-728,-1061,2282,-1101,-1028,691,-490,-888,1562,-658,-961,686,-314,-671,1075,-169,-597,709,-217,-494,741,37,-240
833,-564,-8,-50,-16,13,836,-570,-26,-79,-15,18,833,-566,-54,-95,10,36,832,-555,-71,-158,46,49,830,-572,-63,-224,82,69,843,-608,-28,-234,112,83,844,-631,25,-201,85,54,843,-633,33,-142,12,10,832,-615,-7,-53,-23,-13,837,-583,-160,-76,-31,-58,835,-517,-471,-339,215,-76,763,-436,-780,-866,587,-46,658,-500,-997,-1699,1123,122,502,-637,-1023,-2469,1718,261,381,-892,-940,-2988,2135,403,192,-1109,-693,-3111,2337,706,-43,-1304,-431,-2946,2380,1079,-311,-1528,-75,-2584,1976,1236,-525,-1760,261,-2099,1037,1156,-592,-2088,449,-884,-481,656,-609,-2317,276,165,-2188,-606,-447,-2492,-282,1771,-3221,-1683,-223,-2333,-862,2842,-3178,-2479,-96,-1880,-1183,3265,-2655,-2993,-21,-1341,-1227,2945,-2030,-3086,44,-887,-1070,2519,-1210,-2558,135,-544,-899,1875,-878,-2006,245,-273,-801,1289,-769,-1411,416,-107,-669,721,-483,-768,558,-36,-516,430,-112,-166,703,-39,-379,60,38,238
870,-523,-164,-4,-16,12,876,-522,-179,-51,24,13,872,-522,-169,-93,69,13,874,-528,-156,-131,92,9,866,-526,-135,-138,113,11,864,-509,-191,-161,82,-5,854,-430,-448,-378,200,19,762,-340,-825,-928,612,69,613,-376,-1022,-1708,1191,276,453,-568,-1043,-2423,1838,519,390,-850,-936,-2919,2108,655,304,-1046,-783,-3004,2231,777,151,-1204,-614,-3017,2157,855,-47,-1410,-361,-2443,2204,1312,-272,-1424,-76,-2006,1828,1372,-436,-1470,175,-1562,1040,1446,-497,-1579,295,-1068,142,1225,-597,-1704,335,-528,-1108,531,-669,-1965,165,143,-2409,-215,-529,-2223,-279,1122,-3488,-1227,-459,-2106,-613,1562,-3813,-2498,-519,-1801,-794,2160,-3543,-3093,-547,-1392,-964,2253,-3374,-3438,-369,-934,-1037,1893,-2798,-3200,-188,-593,-995,1642,-1697,-2407,6,-356,-944,1188,-1004,-1648,208,-262,-789,830,-241,-819,385,-211,-651,540,43,-243,618,-269,-551,208,140,201,791,-346,-480,72,200,400
843,-528,-268,-64,2,0,843,-527,-268,-72,54,22,842,-539,-265,-106,61,18,837,-539,-256,-111,83,25,827,-535,-263,-120,41,17,830,-513,-462,-169,-15,-12,846,-462,-828,-485,269,37,885,-501,-1175,-1201,940,110,900,-712,-1307,-2082,1632,48,810,-1000,-1212,-2974,2385,-120,654,-1231,-947,-3541,2897,-279,417,-1255,-592,-3501,3172,-488,123,-1230,-216,-3014,3260,-274,-256,-1177,276,-2165,2742,4,-533,-1255,556,-1462,1671,305,-619,-1375,683,-614,102,629,-610,-1597,688,413,-1624,842,-544,-1926,510,1844,-3090,847,-436,-2124,-85,3090,-4212,484,-153,-2109,-607,3763,-4251,67,77,-1878,-979,3749,-3839,-484,199,-1428,-1284,2958,-3575,-1067,344,-983,-1330,2059,-2217,-1051,382,-718,-1184,1491,-1012,-771,449,-517,-891,879,-145,-386,567,-444,-642,436,180,-79,737,-430,-444,77,294,145,840,-451,-292,-89,420,268,889,-460,-146,-99,486,320,901,-458,-64,-117,413,279
897,-497,-67,-8,-4,-1,899,-498,-72,0,2,-10,892,-497,-73,4,17,-15,887,-498,-74,3,13,-12,887,-499,-75,0,6,-8,889,-496,-75,0,4,-3,894,-499,-75,-4,0,0,897,-499,-89,-6,7,-7,901,-497,-137,-42,-4,-24,929,-504,-271,-123,113,-5,981,-538,-522,-377,338,-29,1076,-665,-868,-1026,805,-240,1045,-847,-1014,-1698,1504,-414,901,-1090,-936,-2656,2154,-805,748,-1268,-730,-3497,2506,-1191,596,-1446,-536,-3926,2956,-1368,222,-1546,-172,-3660,3320,-1322,-356,-1477,454,-2706,2928,-1189,-673,-1340,818,-1605,1552,-574,-662,-1284,856,-605,175,307,-585,-1363,787,359,-1283,946,-505,-1633,683,1446,-2583,1214,-513,-1889,345,2573,-3769,996,-289,-2069,-316,3470,-4290,682,81,-1807,-812,3587,-3694,293,422,-1577,-1056,3169,-2947,-19,603,-1251,-1080,2564,-1923,-400,675,-973,-1025,1870,-1259,-621,691,-677,-829,1291,-574,-543,708,-481,-596,791,-191,-311
840,-560,-159,-263,75,73,860,-605,-106,-289,141,74,858,-618,-42,-279,102,30,841,-608,-11,-226,74,0,811,-597,-6,-140,45,4,791,-584,-121,-119,-26,-18,724,-495,-414,-318,20,-4,641,-390,-713,-738,330,87,524,-387,-973,-1335,1032,385,385,-565,-1105,-2205,1766,549,290,-849,-1133,-3027,2305,667,251,-1158,-1052,-3376,2675,917,32,-1346,-788,-3230,2970,1236,-274,-1596,-490,-2943,2911,1545,-656,-1793,55,-2280,2140,1515,-848,-1947,332,-1331,419,1108,-901,-2075,286,-246,-1181,587,-1053,-2217,77,666,-2991,-521,-1153,-2307,-400,1497,-4084,-1669,-1215,-2016,-909,1953,-4787,-2635,-1126,-1527,-1088,1644,-4651,-3259,-974,-1111,-1044,1492,-3854,-3379,-713,-788,-1090,1549,-2924,-2889,-443,-639,-1096,1234,-1905,-2117,-203,-535,-1121,1037,-1102,-1435,-12,-458,-1056,711,-237,-662,159,-452,-938,411,318,-64,356,-528,-799,64,716,418,527,-647,-662,-153,985,645,632,-699,-521,-229,1152,670
782,-542,-261,-122,87,-2,784,-539,-263,-62,53,0,783,-531,-273,6,4,1,797,-537,-305,37,-32,6,814,-548,-338,48,-6,5,813,-536,-364,29,20,-14,815,-520,-428,-20,58,-29,803,-482,-535,-147,219,-5,786,-429,-663,-340,448,50,726,-353,-853,-711,754,155,671,-393,-1081,-1313,1120,255,717,-668,-1295,-2067,1640,331,683,-884,-1313,-2683,2207,229,576,-1169,-1184,-3181,2856,164,317,-1392,-877,-3252,3464,212,-112,-1517,-323,-2877,3599,356,-545,-1470,238,-1912,2874,592,-670,-1381,473,-1166,1499,500,-649,-1304,523,-530,79,386,-630,-1412,429,-26,-986,578,-580,-1887,311,671,-2112,570,-603,-2211,61,1895,-3346,147,-434,-2414,-587,3453,-4203,-26,0,-2209,-1206,3873,-4194,-523,327,-1752,-1411,3580,-3265,-960,428,-1332,-1338,2945,-2602,-1347,444,-903,-1263,2202,-1897,-1464,491,-482,-1193,1088,-1354,-1214,520,-314,-849,891,-132,-519,574,-223,-475,421,256,-73
806,-559,45,-21,-43,8,816,-521,-76,-95,-9,42,809,-542,-249,-276,293,189,739,-574,-445,-590,469,217,662,-734,-696,-1225,754,283,502,-917,-779,-1675,1260,359,266,-1174,-732,-2126,1891,484,13,-1381,-583,-2260,2388,617,-203,-1506,-332,-2306,2486,599,-272,-1445,-207,-2139,2140,544,-258,-1379,-147,-1921,1981,571,-240,-1334,-51,-1668,1839,633,-189,-1299,69,-1487,1594,568,-139,-1259,243,-1233,1218,555,-185,-1306,447,-1050,731,473,-323,-1481,631,-688,-93,223,-559,-1674,638,-76,-1165,-151,-946,-2069,421,777,-2618,-744,-1291,-2459,87,1630,-3787,-1483,-1384,-2684,-331,2237,-4441,-2358,-1242,-2672,-620,3015,-3972,-2768,-1120,-2308,-749,3439,-3254,-2799,-814,-1822,-786,3345,-2649,-2555,-486,-1383,-811,2941,-2110,-2164,-148,-964,-758,2303,-1359,-1622,114,-696,-682,1610,-776,-1175,350,-494,-563,987,-151,-690,528,-339,-408,557,277,-289,683,-258,-234,107,465,95,794,-281,-80,-169,542,308
739,-759,138,-388,74,117,800,-732,72,-246,48,119,810,-712,36,-200,-9,68,807,-708,-5,-150,-32,44,795,-710,-21,-101,-5,43,781,-696,-32,-56,-15,25,780,-685,-54,-31,-29,12,781,-669,-76,-19,-27,4,776,-656,-90,-31,-28,9,775,-653,-101,-51,-13,16,769,-656,-95,-63,4,28,760,-660,-89,-83,13,32,738,-679,-47,-70,73,92,657,-698,41,-54,175,183,571,-788,189,-45,196,293,568,-891,251,170,6,317,686,-913,106,416,-384,119,805,-813,-107,450,-586,-135,888,-681,-298,389,-375,-163,870,-589,-350,182,-75,-165,703,-565,-244,-140,363,-23,189,-870,38,-619,812,343,-728,-1990,884,72,-697,449,-1257,-2767,205,2031,-2710,-281,-1131,-2842,-806,3553,-4005,-962,-1005,-2168,-1405,3333,-4408,-1818,-754,-1532,-1563,2401,-4131,-2400,-472,-1039,-1500,2089,-2540,-2037,-266,-790,-1358,1394,-1592,-1420,-3,-605,-1106,734,-792,-746
804,-685,-128,-388,208,148,804,-681,-142,-288,135,108,793,-672,-145,-204,92,86,815,-661,-180,-114,38,33,825,-628,-202,-56,27,12,831,-601,-233,-17,30,1,819,-584,-240,-23,48,1,802,-573,-231,-33,92,32,775,-565,-187,-59,225,104,629,-628,-85,-129,664,384,373,-796,125,-156,1067,861,18,-1060,396,4,832,1228,-330,-1451,448,431,-492,1094,-611,-1894,196,1294,-2203,701,-926,-2270,-324,2047,-3717,-551,-1057,-2340,-889,2798,-4518,-1520,-1057,-1991,-1330,3024,-5027,-2617,-863,-1409,-1520,2258,-4694,-2895,-555,-945,-1564,1558,-3192,-2601,-399,-681,-1388,1171,-1744,-1954,-183,-504,-1189,687,-881,-1261,-2,-396,-1021,415,-245,-675,205,-351,-870,186,134,-117,390,-404,-791,0,332,239,556,-431,-687,-8,603,515,665,-481,-601,-180,657,581,706,-506,-530,-215,797,630,729,-511,-441,-244,946,684,752,-532,-355,-288,1017,735,786,-574,-262,-345,961,709
531,-901,-141,-640,795,265,536,-880,-137,-607,694,195,538,-879,-127,-513,634,220,547,-869,-130,-452,516,170,548,-863,-125,-374,410,149,558,-854,-140,-288,284,120,570,-845,-154,-228,172,85,576,-831,-170,-164,101,67,574,-827,-178,-125,37,54,554,-826,-154,-77,-18,58,516,-842,-119,-33,-94,61,435,-905,-52,37,-182,89,373,-1016,6,179,-420,52,320,-1124,14,355,-737,-73,313,-1213,-59,675,-1126,-325,303,-1240,-132,976,-1360,-490,305,-1246,-256,1273,-1480,-616,278,-1286,-289,1417,-1611,-785,319,-1325,-400,1623,-1782,-1125,384,-1295,-479,1779,-1741,-1442,474,-1166,-583,1916,-1587,-1791,534,-941,-730,1938,-1310,-1949,563,-603,-800,1732,-911,-1965,561,-364,-719,1511,-457,-1629,612,-220,-607,1131,-248,-1257,664,-108,-486,788,-152,-914,717,-57,-402,514,-98,-603,773,-28,-317,265,-105,-346,828,-20,-277,175,-39,-61,911,-53,-234,21,-30,103
678,-804,-237,-2458,1163,287,616,-876,-125,-2269,986,282,595,-888,-68,-1972,685,219,592,-869,-31,-1659,530,376,626,-847,-26,-1277,437,616,648,-859,-31,-1055,447,701,666,-897,-2,-864,408,649,696,-920,-1,-704,317,514,730,-913,-14,-514,225,370,740,-871,-36,-384,145,223,743,-818,-69,-285,87,117,726,-758,-108,-222,67,51,684,-718,-126,-238,30,22,644,-729,-139,-260,-3,31,597,-764,-112,-258,4,114,478,-878,-24,-193,118,399,313,-1193,137,-90,73,609,-2,-1694,299,359,-355,507,-405,-2768,228,1243,-1318,94,-861,-3643,-402,3097,-2953,-1138,-1037,-3605,-1383,4157,-3906,-2045,-1180,-3032,-1986,4808,-3804,-2522,-1199,-2178,-2064,4317,-3883,-2944,-883,-1322,-1928,3382,-2849,-2720,-491,-831,-1746,2610,-1842,-2027,-241,-439,-1663,1719,-1223,-1481,-20,-183,-1347,861,-505,-878,175,-27,-1137,434,-13,-310,363,5,-954,71,360,208,465,-48,-827,-237,630,480
887,-537,-278,-148,109,-73,930,-491,-420,-359,281,-97,947,-463,-546,-632,503,-80,921,-491,-636,-1030,769,-95,813,-515,-668,-1461,991,-137,681,-541,-677,-1861,1129,-101,560,-618,-638,-2184,1398,74,450,-713,-556,-2377,1539,310,355,-855,-466,-2355,1692,662,253,-993,-351,-2166,1812,1050,133,-1074,-187,-1871,1718,1233,67,-1157,-72,-1711,1331,1078,22,-1212,71,-1399,881,961,-33,-1244,193,-1075,447,977,-119,-1409,250,-709,-85,980,-209,-1523,248,-393,-866,560,-315,-1644,116,21,-1811,-97,-390,-1694,-75,757,-2692,-663,-410,-1687,-302,1399,-3289,-1044,-341,-1668,-535,1720,-3623,-1555,-203,-1611,-680,1804,-3442,-2026,-27,-1481,-777,1950,-2831,-2369,78,-1287,-789,1934,-2203,-2572,156,-915,-826,1788,-1685,-2597,230,-564,-812,1426,-1117,-2256,335,-260,-734,1006,-581,-1635,466,-143,-602,606,-211,-1052,598,-69,-464,314,-46,-566,719,-41,-365,141,18,-194,844,-57,-270,0,24,73
943,-393,-46,51,3,69,948,-390,-49,25,1,51,947,-392,-50,0,10,45,940,-393,-46,-23,24,41,934,-404,-43,-39,34,47,921,-400,-39,-44,20,51,931,-418,-48,-62,3,62,930,-428,-44,-49,14,58,925,-432,-48,-18,-19,56,932,-418,-148,42,-67,99,1003,-397,-602,-133,-53,208,1105,-413,-1408,-918,393,121,1044,-819,-2246,-2564,1498,-70,744,-1655,-2473,-3834,3030,-263,113,-2404,-1950,-4650,4048,-1253,-789,-2963,-1058,-4389,4129,-980,-1516,-3331,70,-2718,2507,-613,-1725,-3182,547,-47,-502,-459,-1918,-3616,177,2273,-2593,139,-1827,-3790,-1097,3761,-3939,-570,-1362,-3072,-2068,4230,-3882,-1319,-924,-2056,-2452,3070,-3103,-1518,-437,-1499,-2069,2303,-1673,-1229,-99,-1190,-1433,1211,-582,-891,103,-979,-988,805,-21,-614,295,-738,-692,505,233,-346,480,-642,-563,307,246,-145,667,-591,-506,190,280,-8,779,-564,-438,117,348,64,832,-547,-361,70,394,45
492,-879,347,-321,122,47,542,-851,296,-257,58,-52,586,-820,268,-191,43,-120,611,-799,247,-135,76,-139,620,-786,255,-120,93,-169,633,-778,242,-113,113,-198,632,-772,233,-98,132,-206,615,-769,244,-58,156,-180,584,-760,274,-17,149,-171,524,-773,308,42,160,-105,417,-810,362,86,197,55,187,-887,444,171,263,298,-254,-1087,588,144,-77,353,-850,-1758,763,783,-1741,600,-1172,-2518,99,2495,-3335,580,-1051,-2665,-989,3773,-4361,-30,-601,-2216,-1620,3973,-4274,-559,-243,-1520,-1813,3119,-3654,-1282,47,-962,-1638,2104,-2552,-1201,233,-686,-1340,1353,-1283,-715,437,-568,-946,660,-488,-264,623,-498,-660,288,-73,-10,747,-486,-422,-11,95,126,838,-497,-315,-100,150,141,872,-467,-227,-100,241,158,886,-457,-169,-86,300,168,887,-442,-121,-50,302,169,896,-447,-104,-82,230,156,916,-466,-102,-102,153,134,924,-475,-103,-104,129,103
811,-569,-344,-291,60,80,800,-565,-336,-292,125,78,797,-565,-327,-290,150,63,790,-560,-301,-250,189,64,793,-565,-271,-190,177,57,801,-565,-246,-91,136,32,806,-569,-234,23,66,-8,812,-568,-244,115,4,-45,805,-565,-256,207,-42,-74,796,-559,-279,255,-90,-91,800,-565,-306,284,-112,-97,805,-560,-334,305,-105,-107,811,-547,-362,296,-73,-97,805,-523,-404,255,-63,-91,775,-478,-571,255,92,51,680,-392,-828,51,364,218,537,-340,-1163,-662,844,412,361,-471,-1363,-1553,1530,641,122,-766,-1376,-2547,2333,868,-72,-1219,-1180,-3278,2930,1114,-258,-1595,-878,-3389,3102,1296,-566,-1823,-468,-2731,3076,1671,-854,-2007,4,-2033,2449,1611,-980,-2071,404,-1098,535,665,-950,-2242,295,-49,-1408,-407,-852,-2441,-107,1404,-3016,-1637,-797,-2365,-681,2665,-3793,-2723,-790,-1829,-1163,3196,-3933,-3477,-725,-1320,-1240,2919,-3426,-3285,-455,-930,-1297,2399,-2647,-2734,-236,-711,-1250,1952,-1693,-1965
787,-627,-258,32,-14,-16,782,-615,-276,22,-24,-21,779,-605,-287,-12,-12,-16,776,-605,-288,-41,4,-2,771,-611,-287,-76,30,0,761,-609,-288,-94,57,19,754,-613,-294,-127,95,39,744,-605,-308,-152,129,65,727,-572,-355,-184,181,104,671,-502,-428,-200,375,263,678,-595,-441,-391,572,444,701,-745,-314,-481,736,496,722,-835,-156,-605,498,290,751,-813,-155,-528,177,71,760,-667,-381,-460,185,78,775,-506,-793,-730,785,202,661,-480,-987,-1340,1830,342,498,-620,-900,-1946,2784,490,364,-827,-684,-2361,3148,496,170,-1046,-479,-2139,3239,792,-175,-1301,-126,-1674,2882,888,-459,-1419,195,-1059,1915,747,-634,-1408,398,-444,433,514,-654,-1497,383,103,-1101,425,-604,-1677,180,877,-2624,169,-546,-1804,-125,1580,-3764,-307,-474,-1831,-525,2416,-4394,-798,-345,-1701,-839,2744,-4514,-1306,-186,-1396,-1041,2530,-4143,-1789,1,-1041,-1104,2119,-3262,-1737
713,-727,-108,-106,80,-4,704,-721,-111,-123,75,-12,711,-723,-131,-153,65,-14,716,-723,-134,-174,79,-15,716,-714,-129,-178,106,-1,715,-716,-116,-179,124,12,718,-728,-102,-165,117,20,714,-730,-97,-137,92,9,709,-723,-100,-107,73,8,712,-714,-115,-80,54,8,740,-691,-195,-89,71,-10,763,-638,-367,-199,289,23,768,-566,-550,-399,620,69,744,-516,-707,-925,888,5,725,-531,-861,-1542,1202,-58,690,-644,-986,-2251,1571,-95,656,-836,-1020,-2675,2130,74,594,-995,-911,-2860,2662,263,327,-1235,-723,-2633,3096,590,-255,-1501,-187,-2114,2950,606,-700,-1710,369,-1195,1605,605,-757,-1771,400,-68,-218,614,-694,-1878,208,1037,-2119,382,-661,-1981,-52,2069,-3382,26,-587,-2165,-505,3123,-4181,-240,-412,-2116,-938,3350,-4465,-924,-150,-1797,-1213,2842,-4045,-1960,42,-1356,-1378,2566,-2944,-2202,107,-896,-1345,2024,-1870,-1908,183,-518,-1229,1289,-1147,-1424,245,-315,-1002,622,-449,-702
851,-455,-583,-504,489,170,807,-477,-730,-896,808,238,740,-528,-911,-1528,1292,248,676,-679,-1007,-2301,1745,253,658,-947,-1049,-2861,2278,258,611,-1141,-1047,-3355,2639,-41,435,-1316,-943,-3467,3101,17,59,-1443,-542,-3076,3172,268,-269,-1495,-59,-2212,2572,558,-429,-1495,220,-1394,1483,513,-481,-1443,330,-734,381,344,-550,-1435,352,-98,-740,427,-592,-1620,311,525,-1862,606,-657,-1971,87,1533,-3304,269,-682,-2389,-327,2725,-4271,-470,-599,-2545,-809,3613,-4709,-1264,-451,-2348,-1307,3877,-4629,-1890,-241,-1719,-1585,3276,-3899,-2299,-101,-1210,-1489,2453,-2771,-2185,-4,-816,-1255,1759,-1668,-1718,54,-465,-1095,1127,-1022,-1159,232,-293,-981,646,-425,-384,471,-306,-792,216,-96,105,659,-342,-686,1,89,386,770,-381,-579,-189,318,549,833,-405,-483,-276,482,638,905,-446,-388,-352,604,668,916,-473,-300,-361,679,614,912,-496,-201,-420,613,474,915,-501,-134,-426,477,342
908,-459,-107,214,-45,8,921,-451,-145,211,-52,9,924,-440,-157,173,-47,5,924,-442,-153,129,-56,4,924,-447,-144,100,-51,-5,931,-444,-169,67,-66,-22,973,-426,-279,4,-45,-48,1071,-391,-578,-330,35,-149,1160,-364,-925,-926,313,-298,1128,-410,-1205,-1886,825,-433,985,-574,-1271,-2927,1317,-534,712,-750,-1137,-3706,1896,-417,431,-855,-899,-3975,2276,-237,7,-1121,-524,-3722,2502,430,-327,-1366,-41,-3084,1856,625,-555,-1516,216,-2226,582,772,-608,-1609,282,-1406,-702,946,-461,-1710,240,-607,-1994,858,-427,-2222,86,507,-3115,412,-413,-2316,-530,1611,-4115,-611,-167,-2263,-1068,2841,-3927,-1356,63,-1889,-1352,3143,-3296,-1845,284,-1398,-1471,3062,-2288,-2151,325,-886,-1267,2368,-1470,-2003,394,-543,-1002,1551,-906,-1621,456,-294,-754,872,-655,-1232,573,-202,-488,383,-427,-662,683,-180,-297,166,-328,-278,843,-201,-205,37,-292,46,920,-224,-150,-7,-103,297
954,-383,-55,-45,-2,-32,959,-378,-53,-46,-9,-48,964,-389,-41,68,40,-112,958,-359,-44,55,-14,-170,957,-332,-51,18,-6,-138,953,-319,-54,-23,10,-75,968,-324,-75,-45,13,-35,1034,-318,-209,-125,78,-16,1159,-295,-484,-291,324,-12,1320,-312,-851,-865,694,-201,1377,-494,-1104,-1721,1295,-487,1272,-860,-1148,-2680,1893,-921,1047,-1243,-958,-3658,2345,-1577,752,-1469,-714,-4110,2706,-1798,98,-1638,-99,-3674,3048,-1280,-380,-1609,442,-2602,2248,-1212,-494,-1446,582,-1600,1340,-674,-575,-1307,629,-684,361,32,-666,-1321,652,39,-663,618,-770,-1643,593,1315,-2265,1297,-765,-2108,140,2721,-3649,1599,-394,-2426,-461,3763,-4469,1291,107,-2341,-1049,4094,-4228,703,555,-1916,-1536,3496,-3370,-108,662,-1409,-1467,2819,-1976,-608,619,-970,-1156,2026,-1089,-772,616,-639,-915,1207,-822,-837,690,-402,-675,698,-471,-553,768,-296,-462,357,-209,-252,848,-248,-348,120,-114,-60
951,-364,6,3,2,-4,949,-357,0,0,-2,-2,947,-347,-11,-16,0,2,953,-332,-83,-69,-3,2,923,-320,-120,-150,87,30,864,-356,-263,-287,150,-34,782,-383,-463,-562,306,-115,753,-436,-729,-1285,728,-220,766,-612,-837,-2264,1380,-162,704,-709,-825,-3284,1707,-41,654,-811,-845,-3796,1742,162,515,-1079,-814,-4027,1870,533,343,-1374,-727,-3881,1986,732,100,-1609,-562,-3378,1892,804,-185,-1726,-270,-2833,1639,960,-447,-1868,93,-1924,1304,1352,-664,-1872,364,-960,-96,948,-764,-1965,224,-13,-1509,323,-847,-2296,-56,1066,-3022,-592,-871,-2593,-477,2115,-4102,-1921,-760,-2466,-1095,3348,-4330,-2978,-611,-1939,-1394,3512,-3824,-3326,-431,-1350,-1446,3172,-2540,-3011,-237,-865,-1311,2537,-1554,-2360,27,-574,-1042,1722,-688,-1570,227,-376,-875,1069,-189,-931,452,-306,-628,523,204,-384,642,-276,-416,189,350,-4,824,-291,-237,-33,345,216,952,-322,-125,-118,216,234
921,-399,-142,38,-44,-5,921,-392,-156,62,-51,-3,931,-396,-172,73,-40,0,934,-399,-188,62,-28,-4,934,-399,-210,34,-3,8,957,-426,-319,-48,-53,-10,1018,-422,-730,-398,-114,-89,1091,-457,-1254,-1151,154,-138,1085,-726,-1582,-2230,1007,-153,874,-1166,-1486,-3381,2087,-287,616,-1524,-1163,-4319,2714,-615,337,-1735,-686,-4381,3338,-799,-27,-1651,-88,-3692,3376,-966,-317,-1456,429,-2679,2612,-972,-437,-1290,669,-1725,1639,-604,-452,-1138,777,-833,587,-89,-515,-1124,830,-222,-376,255,-559,-1430,838,810,-1676,878,-535,-1910,477,2122,-3157,1141,-387,-2309,-317,3338,-4181,681,-30,-2173,-1170,4018,-4424,35,448,-1547,-1736,3546,-3339,-554,628,-1113,-1625,3000,-1616,-658,634,-892,-1304,2264,-896,-797,643,-634,-1002,1632,-572,-855,680,-416,-773,1248,-313,-648,763,-285,-576,832,-179,-356,854,-245,-465,507,-112,-182,923,-237,-370,284,37,-14,960,-252,-295,111,166,38,981,-265,-217,16,292,66
917,-432,-1,-23,16,-9,924,-437,-3,-19,27,-1,921,-432,1,-13,35,3,920,-432,4,-10,23,9,928,-438,8,0,22,11,927,-434,14,10,6,6,931,-441,10,15,0,-1,921,-433,5,18,-9,-13,940,-447,-78,-16,-5,-67,969,-431,-368,-202,242,-118,1024,-409,-878,-1183,594,-572,974,-396,-1266,-2602,1199,-785,822,-550,-1399,-3924,1903,-695,697,-764,-1324,-4605,2131,-556,566,-1070,-1245,-4767,2324,50,129,-1514,-1105,-4446,2665,657,-734,-1898,-556,-3488,2078,1100,-1151,-2187,-87,-2350,600,1477,-1263,-2315,-9,-991,-1526,920,-1328,-2505,-19,79,-3177,-210,-1384,-2764,-485,1860,-4271,-1954,-1378,-2702,-1184,3364,-4840,-3158,-1117,-2049,-1621,3613,-4400,-3498,-759,-1439,-1622,2965,-3175,-3142,-445,-976,-1463,2329,-2040,-2473,-188,-640,-1288,1636,-1194,-1617,53,-446,-1179,1015,-606,-911,275,-395,-966,486,-91,-191,471,-394,-795,275,206,200,627,-393,-652,17,346,478
829,-610,19,-100,34,-9,833,-608,37,-71,11,-25,830,-603,51,-43,-15,-39,823,-599,53,21,-38,-38,818,-597,35,70,-59,-32,814,-589,0,99,-78,-20,811,-577,-41,88,-78,-2,794,-576,-110,71,-72,37,761,-595,-281,141,-165,101,645,-593,-557,185,-210,248,389,-629,-736,88,-73,608,153,-711,-764,-171,458,1172,-118,-836,-701,-793,1716,1497,-528,-1038,-565,-1314,3147,1728,-1024,-1379,-437,-2004,4262,1692,-1351,-1568,-347,-2218,4771,1569,-1593,-1660,-173,-2383,4799,1667,-1433,-1860,241,-2529,3574,1582,-1122,-1954,526,-1434,1596,757,-1100,-1900,332,-479,-152,-69,-1163,-2057,-69,84,-1838,-1331,-1117,-2194,-466,479,-2921,-2947,-980,-2164,-890,920,-3098,-4152,-901,-1813,-1063,1385,-2497,-4805,-865,-1382,-1048,1381,-2054,-4880,-769,-930,-964,1181,-1653,-4380,-662,-594,-892,1313,-1102,-3439,-424,-219,-908,1421,-749,-2172,-127,-84,-936,1210,-402,-1183,184,-58,-940,955,71,-343
840,-525,-254,16,-12,-29,833,-518,-261,26,-10,-22,834,-521,-269,22,-10,-14,839,-522,-278,22,-1,-6,838,-516,-281,9,2,1,838,-515,-288,-8,3,5,824,-501,-339,-43,5,11,773,-462,-475,-130,84,86,664,-383,-665,-285,266,305,459,-316,-814,-607,553,693,244,-350,-976,-1103,746,1070,-4,-560,-1087,-1600,1271,1634,-188,-921,-1073,-1897,1888,2084,-326,-1281,-936,-2104,2419,2223,-444,-1464,-749,-2052,2668,2143,-546,-1632,-528,-1723,3073,2177,-666,-1618,-178,-1230,3216,2111,-770,-1571,246,-998,2512,1651,-787,-1566,485,-656,1129,1034,-823,-1672,416,-107,-516,371,-829,-2141,190,410,-1956,-723,-879,-2493,-114,855,-3266,-2585,-1004,-2424,-678,1853,-3745,-3946,-1036,-2003,-984,2272,-3457,-4606,-922,-1512,-1093,2157,-2751,-4491,-766,-1072,-1118,2156,-1883,-3810,-491,-621,-1091,1857,-1136,-2762,-257,-395,-1029,1497,-554,-1855,-28,-208,-981,1036,-157,-975,194,-183,-927,738,159,-312
838,-525,-254,-14,9,14,836,-525,-257,-10,4,13,825,-511,-274,-16,-8,20,833,-513,-307,-47,-1,33,830,-515,-309,-78,50,62,821,-534,-299,-110,61,97,796,-524,-316,-119,65,106,774,-493,-406,-98,182,246,764,-534,-414,-125,487,400,732,-562,-396,-173,638,447,658,-526,-495,-201,879,518,541,-512,-660,-342,1326,640,375,-573,-723,-549,2018,648,149,-751,-559,-797,2784,608,-53,-914,-232,-858,3100,669,-291,-1173,277,-498,3424,778,-672,-1460,1229,-313,3128,537,-903,-1465,1784,339,1346,317,-1105,-1445,1907,943,-726,354,-1188,-1655,1664,1388,-2707,218,-925,-1885,964,2412,-3850,-165,-586,-1799,330,3129,-3630,-575,-316,-1513,-247,2975,-3360,-906,-101,-1111,-557,2358,-2787,-1114,-3,-746,-587,1862,-1972,-824,211,-543,-672,1013,-1727,-509,446,-341,-650,601,-897,-224,561,-214,-545,288,-242,-79,660,-153,-479,-80,159,93,721,-161,-413,-333,492,222
222,-827,-563,-290,474,335,212,-847,-573,-367,611,356,213,-852,-563,-397,661,384,234,-851,-575,-398,694,372,266,-841,-598,-396,735,363,303,-817,-623,-350,846,390,303,-783,-642,-368,1007,409,292,-731,-651,-409,1105,428,223,-670,-649,-518,1180,509,107,-689,-609,-702,1202,674,-48,-881,-504,-943,1054,847,-237,-1260,-350,-872,677,880,-495,-1729,-208,-318,-31,607,-879,-2589,-643,663,-1177,-733,-1221,-3304,-1706,2225,-2077,-2691,-1004,-3069,-2815,3400,-1372,-4006,-1060,-2275,-3106,3297,270,-4702,-1256,-1346,-2681,2106,1668,-5061,-1281,-663,-2016,1308,2411,-4238,-1110,-212,-1428,800,2363,-2918,-986,88,-1046,602,1853,-1828,-870,327,-727,550,1129,-682,-736,515,-492,637,469,275,-505,629,-423,746,-117,1207,-230,655,-418,622,-425,1990,30,587,-466,357,-563,2490,407,447,-524,134,-230,3188,597,150,-519,-398,225,3510,718,-262,-330,-1168,511,3264,762,-510,-181,-1309,481,2823
432,-773,-653,145,-185,57,469,-642,-731,215,-180,-85,471,-568,-767,200,-96,-60,464,-551,-765,112,-6,-11,442,-576,-732,44,63,34,435,-609,-722,-12,117,51,407,-628,-687,-56,148,56,391,-668,-664,-99,154,72,352,-722,-633,-135,182,99,254,-818,-590,-166,227,209,122,-992,-516,-243,198,389,-84,-1404,-370,-167,17,596,-391,-2003,-372,425,-517,358,-659,-2523,-779,1297,-1264,-775,-979,-3190,-1726,2730,-1827,-2726,-1149,-3495,-2853,3934,-1490,-3936,-1024,-2991,-3477,4456,-33,-4714,-870,-2255,-3394,4174,1403,-4962,-964,-1253,-2996,3218,2187,-4684,-1096,-431,-2484,2133,2413,-3835,-1086,95,-1912,1059,2258,-2561,-952,368,-1468,478,1779,-1574,-770,603,-971,77,1190,-781,-620,720,-576,-56,692,-248,-391,823,-311,-3,306,218,-231,853,-169,41,66,626,-122,847,-172,203,-208,963,12,818,-279,382,-273,1584,180,770,-294,377,-233,1974,373,671,-307,135,-232,2009,538,583,-266,-91,-129,2093
892,-480,-137,2,-6,-38,892,-474,-135,-7,-12,-27,905,-479,-140,-6,-16,-19,917,-472,-147,-18,-23,-49,944,-457,-165,-61,-70,-118,1009,-429,-227,-146,-212,-217,1111,-386,-386,-265,-342,-471,1190,-235,-659,-695,-485,-979,1107,7,-971,-1371,-229,-1160,901,137,-1139,-1888,162,-781,656,130,-1246,-2588,504,-324,416,0,-1211,-3063,803,272,146,-219,-1037,-3353,1181,1006,-37,-428,-843,-3461,1221,1500,-214,-783,-765,-3403,1046,2019,-363,-1123,-684,-3293,605,2039,-459,-1454,-700,-3050,-3,1926,-433,-1936,-604,-2426,-205,2077,-491,-2191,-393,-1837,-678,1150,-530,-2574,-442,-758,-1042,706,-664,-3300,-895,347,-1521,-516,-818,-3715,-2036,2240,-1961,-2692,-692,-3402,-3163,3643,-1199,-3916,-894,-2336,-3670,4124,565,-4703,-1093,-1179,-3379,3623,1926,-4871,-1080,-196,-2552,2361,2587,-3639,-876,155,-1839,1731,2568,-2271,-754,380,-1331,1137,2133,-1412,-723,546,-917,799,1536,-724,-619,704,-565,579,919,-56
1039,-229,-166,-144,-83,194,1008,-241,-185,-177,-73,123,995,-240,-209,-159,-37,88,993,-241,-229,-179,-25,55,990,-247,-229,-143,8,56,980,-251,-215,-123,5,38,987,-258,-220,-102,3,13,994,-254,-226,-90,24,-5,998,-240,-237,-104,35,-48,998,-224,-254,-113,44,-74,1039,-186,-327,-159,58,-116,1109,-109,-535,-311,113,-251,1110,99,-918,-916,352,-432,933,243,-1239,-1747,780,-321,710,98,-1428,-3007,1082,-134,590,-211,-1500,-3835,1392,300,393,-589,-1373,-4392,1680,615,218,-1012,-1203,-4461,1733,830,6,-1321,-1036,-4146,1364,944,-193,-1691,-798,-3416,811,1420,-225,-1776,-559,-2684,106,890,-275,-1851,-374,-1857,-532,636,-305,-2043,-338,-1059,-1038,553,-346,-2410,-540,-59,-1649,-231,-326,-2942,-1086,1247,-2141,-1452,-252,-3194,-1837,3042,-2272,-2851,-178,-2741,-2549,4124,-1831,-3998,-354,-1622,-2852,4235,-615,-4727,-442,-611,-2495,3293,531,-4430,-384,-144,-1810,2264,1237,-3388
970,-293,-84,-532,-101,-169,1040,-278,-129,-623,-189,-294,1103,-126,-328,-750,-101,-419,1161,58,-579,-1093,55,-554,1150,169,-837,-1537,254,-525,1020,202,-1027,-2223,450,-465,843,170,-1207,-2974,533,-362,537,45,-1274,-3625,750,32,290,-162,-1307,-4018,759,443,90,-502,-1322,-4005,675,1037,103,-1040,-1427,-4243,860,1299,1,-1495,-1287,-3814,492,1398,-191,-1831,-995,-3218,100,1548,-277,-2161,-539,-2294,-135,1540,-410,-2383,-141,-1538,-539,988,-656,-2747,-93,-390,-1103,755,-1321,-3428,-511,1022,-1761,205,-2410,-4798,-1601,2787,-3068,-485,-3070,-6173,-3667,4061,-4209,-2382,-2932,-6138,-4590,4735,-4582,-3729,-2632,-4856,-4146,5104,-4565,-4596,-1825,-3495,-3313,4349,-3329,-4936,-1220,-2490,-2553,2946,-2031,-4565,-1022,-1818,-2054,1779,-826,-3727,-1033,-1113,-1621,899,-182,-2665,-929,-520,-1385,548,144,-1603,-625,-58,-1276,245,154,-569,-330,157,-1169,20,95,102,-40,291,-1061,-142,84,687,174,263,-978,-247,109,1010
946,-214,-483,-780,-251,-685,856,-17,-794,-1077,88,-444,622,125,-998,-1598,600,114,318,7,-1097,-2375,995,698,90,-320,-1129,-2984,1224,1307,-109,-825,-1088,-3077,1597,2123,-362,-1228,-937,-2930,2100,2505,-674,-1425,-634,-2562,2222,2428,-968,-1477,-419,-2171,1958,2531,-1177,-1694,-81,-1911,1448,2526,-1197,-1780,259,-1708,486,1985,-1173,-1894,520,-1085,-526,1481,-1316,-2064,554,-368,-1463,918,-1708,-2271,444,314,-2592,57,-1860,-2437,174,848,-3620,-1146,-2017,-2621,22,1626,-4251,-2464,-2004,-2663,-225,2392,-4802,-3642,-1630,-2337,-622,2950,-4591,-4315,-1113,-1746,-872,2664,-3589,-4715,-800,-1124,-1006,2345,-2516,-4378,-573,-564,-996,1608,-1487,-3611,-437,-189,-918,1165,-801,-2742,-285,143,-862,693,-424,-1831,-140,344,-804,457,-150,-983,-19,446,-761,245,-3,-269,66,431,-805,-38,39,316,236,486,-785,-311,80,821,391,448,-740,-504,89,1231,545,413,-623,-657,84,1519,686,330,-484,-794,110,1715
923,-450,-308,-153,97,124,903,-464,-308,-247,159,122,916,-491,-428,-285,255,118,924,-506,-658,-382,542,177,884,-617,-944,-925,1163,121,717,-770,-1065,-1611,1867,-14,431,-1020,-1001,-2324,2555,-94,183,-1307,-793,-2607,2989,14,-144,-1490,-440,-2647,3205,28,-455,-1591,-71,-2513,3150,159,-731,-1575,480,-1912,2644,165,-906,-1455,926,-1164,1511,55,-920,-1354,1116,-390,335,255,-932,-1391,1070,410,-806,662,-1056,-1616,986,842,-1799,783,-1354,-1943,779,1576,-3019,950,-1596,-2408,515,2232,-3989,1119,-1674,-2798,22,2844,-4733,868,-1524,-2832,-447,3064,-5000,321,-1190,-2550,-848,3014,-4756,-343,-838,-2116,-1017,2702,-4267,-822,-440,-1554,-1166,2186,-3454,-1118,-182,-1024,-1168,1612,-2564,-1113,77,-674,-1200,1131,-1839,-904,312,-487,-1025,699,-946,-492,495,-451,-846,408,-388,-172,607,-453,-683,247,39,67,673,-456,-618,46,151,142,718,-439,-565,-156,275,192,740,-446,-495,-384,350,226
811,-452,-276,-136,-204,-302,794,-432,-472,-350,38,-147,689,-403,-752,-598,457,23,488,-390,-936,-1116,1017,256,205,-537,-1021,-1699,1749,664,-91,-836,-949,-2284,2498,1073,-309,-1162,-791,-2543,3004,1373,-518,-1435,-563,-2516,3320,1584,-818,-1491,-331,-2224,3572,1860,-1348,-1675,182,-1930,3664,2000,-1573,-1706,737,-1357,2245,1461,-1607,-1647,839,-677,369,1051,-1811,-1804,843,-19,-988,917,-2341,-2211,721,398,-2877,-24,-2726,-2641,316,1317,-4015,-1197,-2771,-2797,-364,2352,-4748,-2229,-2345,-2477,-702,2384,-5058,-3251,-1765,-1852,-903,2216,-4447,-3697,-1207,-1193,-1017,1754,-3281,-3381,-827,-753,-995,1098,-2206,-2789,-505,-380,-988,666,-1305,-1911,-236,-135,-994,371,-564,-1092,15,19,-931,191,-149,-314,228,36,-874,8,-72,271,446,-48,-871,-148,-83,701,556,-81,-859,-231,65,917,639,-99,-786,-303,287,1111,688,-136,-701,-434,412,1237,746,-221,-586,-499,627,1335,776,-289,-468,-464,835,1384
855,-482,-418,-201,-50,-60,839,-517,-707,-349,1,28,812,-583,-1055,-730,313,96,692,-758,-1279,-1402,1177,239,513,-1011,-1263,-2161,1945,274,340,-1322,-1076,-2874,2673,174,75,-1451,-736,-3148,3352,23,-235,-1521,-339,-3392,3690,-157,-489,-1570,289,-3162,3368,-465,-607,-1558,682,-2339,2487,-246,-656,-1543,992,-1378,1654,248,-753,-1554,1109,-505,871,607,-1172,-1722,1217,411,-113,1113,-1628,-2226,1121,1502,-1893,1759,-1941,-2841,575,2659,-3541,2243,-1863,-3160,-280,3120,-4413,1918,-1425,-2944,-847,3165,-4854,959,-1046,-2615,-996,3024,-4629,142,-730,-2123,-1040,2665,-3983,-487,-414,-1628,-1099,2101,-3243,-952,-211,-1187,-1130,1647,-2438,-975,-28,-872,-1112,1001,-1552,-771,120,-715,-1003,562,-749,-503,305,-580,-823,292,-38,-201,428,-523,-652,10,334,17,548,-498,-547,-248,467,184,622,-508,-486,-412,606,330,692,-537,-411,-522,737,483,731,-592,-329,-628,850,531,749,-595,-241,-582,909,537
742,-595,-170,-273,-57,-228,663,-523,-297,-501,23,-326,572,-440,-556,-726,271,-207,451,-503,-762,-900,757,165,237,-618,-897,-1148,1518,514,-23,-890,-936,-1534,2291,941,-389,-1239,-837,-1814,3290,1201,-712,-1596,-676,-2155,3925,1161,-948,-1700,-507,-2183,4125,967,-1166,-1753,-348,-2244,4114,889,-1435,-1732,-6,-2087,4036,993,-1641,-1591,569,-1777,2849,912,-1677,-1509,815,-1165,1157,976,-1866,-1531,838,-376,-491,1081,-2295,-1719,720,441,-1988,1298,-3162,-2072,470,666,-3574,961,-3779,-2487,177,1350,-4432,807,-3870,-2666,-112,1387,-4985,-144,-3397,-2570,-389,1640,-5277,-1345,-2576,-2097,-746,1879,-5239,-2417,-1729,-1515,-1003,1960,-4038,-2545,-1120,-1066,-1087,1878,-2578,-2221,-670,-656,-1013,1562,-1303,-1686,-281,-331,-953,1144,-779,-1163,131,-119,-895,729,-387,-534,418,-73,-833,461,-99,-128,613,-72,-729,283,200,138,711,-85,-647,171,296,229,796,-90,-583,79,310,308,877,-132,-558,-69,278,299
989,-228,-202,-345,-61,-77,932,-174,-418,-660,-94,-36,871,-186,-790,-1363,69,165,686,-242,-963,-1700,778,527,430,-319,-1022,-2246,1246,746,138,-553,-1104,-2854,1768,1068,-105,-925,-1124,-3248,2367,1453,-330,-1391,-1066,-3328,3029,1725,-558,-1844,-957,-3211,3567,1789,-802,-2020,-625,-2604,3715,1578,-843,-1980,-330,-2343,3080,1054,-779,-1805,-1,-1788,2417,871,-764,-1605,250,-1342,1798,783,-882,-1573,549,-1184,1220,632,-1140,-1638,870,-654,582,404,-1648,-1885,935,144,-1174,246,-2348,-2471,594,1224,-3090,50,-2826,-3245,219,2251,-4143,-440,-3049,-3845,-214,3249,-4820,-2176,-2750,-3509,-775,3736,-5148,-3560,-2054,-2701,-1020,3497,-4297,-4068,-1464,-1914,-1045,2746,-3432,-3972,-911,-1207,-1036,1914,-2285,-3345,-573,-736,-998,1341,-1315,-2561,-319,-331,-956,802,-573,-1663,-111,-89,-924,448,-107,-939,103,71,-886,210,181,-233,322,98,-868,108,398,300,480,147,-780,0,846,677,616,160,-665,-135,978,931
756,-684,-467,-1114,386,-530,496,-759,-602,-1649,1129,-379,206,-955,-608,-2182,1896,-193,-122,-1235,-510,-2607,2713,-37,-382,-1450,-368,-2889,3158,-14,-601,-1582,-257,-3104,3299,22,-818,-1735,-197,-3168,3482,259,-1086,-1756,169,-2468,3481,618,-1303,-1706,594,-1882,2540,630,-1433,-1599,868,-1215,972,630,-1566,-1633,866,-608,-485,745,-2062,-2093,766,-31,-2278,132,-2901,-2751,451,917,-3760,-1129,-3302,-3519,-129,1956,-4544,-2574,-3142,-3489,-921,2936,-5020,-3938,-2592,-2622,-1291,2937,-4566,-4641,-1792,-1753,-1287,1672,-3528,-4691,-1228,-1163,-1198,1051,-2279,-3981,-812,-718,-1077,607,-1203,-2856,-574,-351,-981,404,-581,-1906,-337,-37,-903,333,-134,-916,-129,191,-887,235,-4,-212,148,254,-909,112,122,450,350,241,-869,-14,283,825,516,171,-817,-188,228,987,600,129,-742,-296,285,1054,632,112,-661,-365,281,1098,684,92,-592,-423,283,1161,751,68,-532,-371,433,1316,817,11,-489,-440,521,1387
893,-717,365,-434,182,-591,819,-927,229,-983,317,-1057,639,-1081,166,-1463,469,-1467,330,-1228,214,-1926,843,-1935,-25,-1313,471,-2285,1204,-2316,-284,-1284,806,-2572,1214,-2310,-410,-1233,1020,-2684,1232,-2134,-538,-1097,1274,-2511,1568,-1933,-649,-798,1453,-2167,1460,-1541,-742,-466,1656,-1609,1404,-1046,-713,-143,1829,-934,769,-117,-637,-59,1888,-306,223,596,-833,-138,2050,344,-248,1151,-1263,-372,2236,1015,-667,1707,-2051,-1012,2588,1727,-1446,2800,-2312,-1944,2683,2620,-3010,3813,-2063,-2624,2390,3423,-4176,3678,-1722,-2725,1817,3746,-4793,2825,-1244,-2407,952,3630,-4889,1599,-819,-1965,273,2894,-4146,725,-480,-1580,-67,1954,-2789,-49,-300,-1207,-195,1404,-1449,-491,-106,-922,-354,1012,-906,-352,181,-741,-557,639,-445,-43,407,-660,-648,275,19,137,602,-582,-640,-87,451,219,721,-516,-546,-346,675,234,827,-449,-461,-493,706,256,875,-388,-408,-574,709,216,897,-333,-356,-678,670,203
692,121,661,381,589,-186,670,165,697,386,627,-159,652,181,742,299,554,-33,683,130,778,214,354,67,722,48,771,105,163,66,813,-169,766,-42,20,-139,871,-453,740,-280,-210,-463,785,-764,700,-700,-353,-1155,498,-931,775,-1171,-278,-1940,108,-902,948,-1745,-60,-2450,-202,-775,1167,-2185,36,-2666,-356,-683,1221,-2333,66,-2598,-453,-592,1293,-2349,291,-2562,-537,-459,1296,-2191,596,-2244,-696,-177,1347,-1844,1201,-2123,-992,198,1541,-1442,1561,-1799,-1257,447,1757,-832,983,-641,-1499,406,1814,-204,475,575,-1853,175,2020,512,-60,2111,-2304,-215,2244,1359,-688,3529,-2689,-750,2522,2142,-1607,4477,-2596,-1270,2447,2775,-2767,5016,-2085,-1493,2021,3175,-3260,5029,-1435,-1532,1405,2895,-3299,4410,-875,-1417,970,2246,-2808,3261,-531,-1229,705,1558,-2112,2069,-280,-1065,464,1088,-1538,1154,-4,-939,216,737,-907,577,300,-895,40,295,-403,289,539,-848,8,-127,175,-53
842,-704,279,-912,-361,-570,848,-867,48,-1408,-79,-895,746,-1019,-151,-2018,507,-1361,497,-1131,-243,-2793,1262,-1756,259,-1312,-173,-3325,1948,-1933,-9,-1492,-53,-3793,2257,-1936,-183,-1640,86,-3814,2441,-1756,-420,-1693,272,-3387,2768,-1300,-635,-1572,532,-2841,2676,-893,-829,-1437,835,-2304,2025,-424,-949,-1347,1145,-1749,1337,94,-986,-1339,1318,-1064,210,408,-1067,-1457,1339,-466,-939,367,-1230,-1816,1206,683,-2060,648,-1583,-2321,1118,1745,-3055,1079,-1637,-3053,910,2991,-4201,1137,-1429,-3321,511,3909,-4853,310,-1181,-3229,111,4326,-5175,-520,-902,-2714,-287,4200,-4925,-1348,-658,-2141,-549,3648,-4282,-1796,-462,-1564,-776,2904,-3243,-1879,-345,-1173,-870,2113,-2256,-1693,-244,-801,-918,1481,-1258,-1324,-97,-505,-945,962,-662,-837,120,-337,-947,449,-323,-321,311,-265,-940,182,-33,-3,454,-211,-904,22,252,200,543,-165,-854,-65,370,300,618,-110,-809,-131,404,356,692,-92,-784,-208,392,369
888,-779,-678,-1270,187,-260,734,-936,-802,-1950,737,-366,530,-1167,-759,-2832,1361,-477,309,-1371,-548,-3310,2128,-477,72,-1542,-227,-3706,2640,-553,-71,-1618,11,-3714,2626,-670,-201,-1644,232,-3540,2598,-598,-325,-1579,458,-3094,2593,-339,-405,-1485,689,-2656,2092,-170,-367,-1384,898,-2253,1400,-75,-251,-1240,1040,-1730,687,111,-232,-1262,1155,-1357,181,317,-297,-1430,1279,-730,-405,435,-743,-1668,1245,154,-1028,385,-1534,-2222,1254,1302,-1679,970,-2587,-3538,1160,2969,-3255,2033,-3298,-4698,888,4082,-4242,3137,-3363,-4990,329,4737,-4876,2975,-2687,-4363,-101,4454,-5212,1656,-1827,-3379,-395,3924,-5129,227,-1169,-2469,-541,3039,-4296,-477,-712,-1775,-551,1835,-3114,-1093,-478,-1304,-600,1142,-2130,-1271,-255,-931,-691,643,-990,-938,-71,-664,-739,322,-80,-450,192,-510,-763,-143,443,-18,463,-412,-734,-424,860,338,645,-356,-644,-631,1003,500,798,-314,-536,-723,1065,574,870,-275,-431,-738,1108,578
1056,-711,-161,-371,36,-287,1037,-810,-261,-849,76,-537,941,-897,-350,-1553,180,-794,795,-953,-373,-2321,297,-880,615,-1013,-316,-3098,498,-778,471,-1072,-230,-3517,746,-557,365,-1136,-45,-3604,1060,-218,257,-1104,125,-3369,1075,100,248,-1136,242,-3055,1112,401,221,-1122,395,-2619,1383,705,116,-1043,553,-2247,1675,916,-221,-985,793,-2102,2058,1339,-583,-1225,1119,-2079,1987,1893,-1003,-1464,1565,-1608,827,1522,-1892,-1937,1784,-573,-704,1346,-3587,-3531,1751,1531,-2810,1889,-4394,-5154,1218,3184,-3975,1808,-4094,-5199,364,3582,-4725,-60,-3276,-4270,76,3384,-4834,-1415,-2346,-3147,-78,2617,-4542,-2285,-1630,-2224,-263,1947,-3778,-2524,-1220,-1555,-553,1546,-2732,-2188,-1026,-871,-900,762,-1434,-1743,-644,-536,-873,-13,-812,-1121,-245,-331,-824,116,-41,-547,53,-218,-923,100,415,-43,238,-167,-917,-119,611,299,370,-138,-879,-345,490,515,436,-113,-831,-429,429,697,467,-42,-781,-402,316,907
1069,-489,-94,-615,-91,-324,1112,-571,-302,-975,-35,-493,1023,-642,-419,-1433,244,-654,875,-669,-443,-2127,276,-814,797,-737,-394,-2657,444,-736,670,-785,-291,-2987,776,-658,532,-806,-187,-3251,922,-571,369,-802,-81,-3363,995,-323,248,-874,44,-3382,1156,174,137,-1116,170,-3158,1741,887,-94,-1209,448,-2780,2405,1220,-315,-1213,659,-2451,1683,947,-469,-1292,806,-2214,1233,991,-713,-1402,1103,-1742,753,1215,-1225,-1697,1462,-1134,-63,1028,-2154,-2195,1460,26,-2238,684,-2860,-3778,1183,2132,-3737,1042,-3117,-5017,544,3580,-4530,177,-2727,-5130,-272,4512,-5027,-1672,-2229,-3999,-719,4341,-4949,-2377,-1557,-2708,-842,2959,-4355,-2780,-1023,-1847,-847,2270,-2932,-2417,-602,-1251,-844,1510,-1834,-1895,-382,-822,-851,906,-1014,-1426,-229,-439,-845,551,-327,-888,-85,-203,-872,347,31,-401,99,-33,-933,157,209,77,284,64,-971,-34,414,410,475,100,-921,-261,616,682,608,90,-836,-418,703,798
1080,-271,23,-186,-121,-49,1009,-226,-20,-25,-178,-112,979,-193,-70,20,-245,-135,977,-177,-93,53,-234,-125,971,-162,-122,116,-154,-118,982,-168,-150,118,-91,-106,977,-181,-178,79,-42,-106,954,-192,-270,-27,-37,-51,906,-291,-546,-226,287,224,798,-531,-1125,-574,899,436,485,-1264,-1896,-2061,2107,131,7,-2318,-1952,-3623,3648,-757,-387,-3115,-1536,-4467,4108,-1645,-1107,-3637,-827,-4931,3868,-1727,-2675,-3357,750,-4215,3867,-623,-3030,-2857,1702,-2009,959,1122,-3157,-2776,1721,-216,-1594,2032,-3444,-3761,1666,1784,-3370,2652,-3224,-4533,1297,3121,-4311,1912,-2667,-4409,420,3889,-4916,222,-1953,-3613,-302,3513,-4805,-1029,-1350,-2536,-506,2692,-3450,-1568,-875,-1804,-525,1853,-2593,-1425,-428,-1141,-609,1302,-1734,-1079,-89,-680,-705,837,-1104,-691,162,-457,-775,395,-681,-396,344,-313,-793,125,-259,-144,493,-203,-755,-72,-10,21,620,-133,-709,-164,102,154,681,-128,-698,-262,167,182
992,-9,-280,-68,27,37,950,-38,-297,-193,134,73,900,-71,-284,-362,245,162,847,-138,-287,-547,308,286,766,-373,-551,-845,137,520,631,-673,-1016,-1606,587,797,299,-1369,-1194,-3050,1814,821,38,-2109,-1049,-4123,2851,649,-236,-2747,-753,-4814,3597,223,-463,-3122,-410,-4900,3971,11,-1009,-2933,70,-4270,4037,-353,-1339,-2576,693,-3667,3312,-231,-1522,-2182,1344,-2292,1989,31,-1755,-2068,1471,-768,209,406,-2538,-2830,1529,862,-1720,1068,-3660,-4583,1099,2949,-3442,1912,-3857,-5653,558,4069,-4354,1647,-3216,-5189,-412,4654,-4934,58,-2268,-3831,-702,3863,-4313,-1086,-1383,-2580,-596,2669,-3268,-1470,-758,-1828,-514,1597,-2334,-1350,-368,-1175,-525,909,-1405,-967,10,-737,-594,424,-928,-563,347,-446,-599,216,-494,-174,532,-256,-557,42,-286,36,664,-137,-542,-30,-176,195,779,-66,-548,-94,-122,266,844,-44,-545,-41,-70,274,861,-29,-576,-33,-110,234,853,-47,-610,-24,-77,208
933,3,-417,-85,41,48,929,0,-409,-69,42,38,919,-1,-404,-47,71,32,899,-1,-395,-47,71,69,891,-29,-410,-59,53,110,853,-58,-464,-107,105,160,746,-125,-551,-256,221,252,575,-233,-706,-571,503,455,380,-412,-817,-961,1063,750,99,-776,-852,-1624,1869,1111,-178,-1223,-772,-2330,2963,1348,-521,-1816,-465,-3211,4154,1226,-786,-2294,-109,-3782,4796,853,-1289,-2571,439,-3629,5204,550,-1489,-2276,1007,-2578,4064,-167,-1473,-1730,1205,-1674,2476,-363,-1461,-1460,1378,-789,1517,145,-1764,-1536,1374,-20,40,512,-2251,-2116,1209,777,-1920,972,-2527,-3135,786,2443,-3556,1556,-2357,-3698,-5,3842,-4486,1243,-1839,-3151,-752,3841,-4873,393,-1090,-2270,-1012,3120,-3704,-396,-636,-1530,-815,2330,-2448,-700,-238,-954,-529,1351,-1714,-642,103,-585,-390,922,-1097,-418,414,-325,-332,498,-721,-202,681,-190,-306,232,-496,-69,857,-114,-269,70,-237,-16,929,-76,-219,18,-105,12
1017,-212,-33,-432,550,584,987,-306,14,-611,593,689,1021,-409,-3,-579,495,604,1084,-543,-226,-642,318,365,1171,-637,-651,-997,483,32,1048,-773,-1022,-1780,980,-328,766,-1012,-1288,-2954,1327,-727,425,-1340,-1333,-3916,1782,-781,155,-1564,-1141,-4389,2182,-701,-28,-1816,-864,-4441,2244,-319,-138,-1881,-610,-4100,2014,122,-297,-1921,-255,-3541,1932,712,-400,-1937,202,-2830,1521,832,-562,-1880,618,-2135,714,721,-728,-2012,938,-999,-168,1005,-1055,-2189,970,194,-1239,906,-1824,-2829,952,1601,-2418,1381,-2677,-3938,645,2941,-3733,1456,-2715,-4996,-274,4087,-4587,-100,-2238,-4649,-1050,4502,-5038,-2083,-1828,-3349,-1408,3449,-4703,-3659,-1369,-2208,-1338,1994,-3617,-4070,-796,-1469,-1172,1262,-1744,-2976,-516,-949,-1041,821,-968,-2166,-352,-278,-976,512,-719,-1390,-126,260,-878,257,-427,-595,111,455,-776,117,-283,-16,316,531,-683,-1,-151,224,426,566,-603,-27,-67,322,497,585,-562,39,-16,301
14,-930,-470,-317,305,445,-27,-927,-510,-387,529,553,-67,-945,-526,-424,837,602,-191,-903,-443,-497,1012,733,-219,-931,-416,-739,846,704,-239,-988,-370,-720,778,672,-306,-1074,-261,-458,953,712,-529,-1283,-38,-113,973,727,-903,-1648,138,633,701,590,-1666,-2321,77,1601,-439,-51,-2448,-3473,-654,2789,-2604,-2037,-2407,-4087,-1664,3964,-3734,-3522,-2095,-3628,-2336,4509,-3319,-4478,-1724,-2644,-2333,3771,-1840,-4984,-1375,-1591,-1932,2610,-164,-4658,-1107,-913,-1482,1943,444,-3546,-854,-396,-1272,1403,586,-2286,-777,-4,-1087,929,528,-1225,-553,337,-890,516,271,-175,-276,524,-704,382,37,246,-33,698,-597,288,-144,493,122,780,-520,249,-134,651,255,846,-465,286,-97,710,375,827,-461,427,46,747,420,810,-459,404,65,548,394,837,-522,285,16,246,337,841,-545,155,9,148,357,801,-547,96,-3,145,389,765,-542,69,23,139,396,764,-541,51,17,118
704,-486,562,56,-163,-31,738,-513,542,-22,-201,-68,797,-530,508,-156,-144,-177,855,-576,466,-403,-215,-346,948,-664,357,-650,-232,-616,1056,-796,70,-1164,-111,-1174,1021,-832,-276,-1509,206,-1485,791,-850,-540,-2493,653,-1725,500,-964,-731,-3503,1314,-1587,106,-1011,-704,-4138,1708,-1039,-152,-1216,-657,-4394,2122,-129,-514,-1502,-600,-4251,2684,790,-919,-1763,-404,-3991,2830,1073,-1235,-2006,-90,-3462,2024,829,-1441,-2123,285,-2409,1044,812,-1673,-2426,367,-1113,-401,635,-2123,-3259,115,606,-2326,-155,-2190,-3981,-617,2457,-3685,-1913,-1692,-4016,-1850,3873,-4270,-3563,-1445,-3133,-2286,4191,-3214,-4436,-1257,-1869,-2087,3458,-1735,-4914,-898,-1063,-1725,2564,-380,-3910,-523,-509,-1368,1700,166,-2740,-427,-100,-1115,1054,311,-1951,-433,319,-852,370,136,-1118,-266,546,-619,168,51,-395,-125,731,-431,102,-78,61,-15,819,-357,169,-268,337,179,853,-351,179,-297,447,288,903,-295,181,-280,424
583,-732,155,-260,-339,-256,615,-786,-85,-587,367,-351,566,-865,-235,-1077,753,-589,418,-1027,-319,-1671,1200,-781,204,-1209,-292,-2113,1756,-813,-76,-1368,-153,-2253,2299,-843,-275,-1448,-86,-2361,2391,-852,-436,-1479,-16,-2406,2400,-683,-499,-1558,130,-2391,2281,-456,-543,-1500,403,-2152,2121,-262,-642,-1451,774,-1910,1724,-60,-839,-1418,1207,-1113,851,328,-1214,-1671,1385,-143,-645,689,-1973,-2463,1503,1094,-2332,905,-2792,-3607,1236,2822,-3790,638,-2955,-4053,612,3651,-4562,-325,-2766,-3627,20,3660,-5059,-1762,-2328,-2729,-392,3094,-5179,-2458,-1687,-1751,-618,2389,-3983,-2343,-1071,-1155,-735,1687,-2718,-1694,-529,-785,-741,883,-1524,-1131,-179,-474,-734,455,-770,-681,184,-240,-743,208,-349,-289,430,-129,-768,120,-168,-58,572,-68,-768,56,-54,29,636,-17,-758,46,-13,81,675,-4,-754,31,0,75,678,5,-752,64,26,54,682,5,-760,75,32,63,691,-10,-769,81,29,54
911,-643,100,-289,-189,-55,1005,-719,-45,-348,-132,-225,1149,-797,-431,-620,25,-613,1097,-796,-733,-913,473,-830,807,-799,-939,-1592,1180,-994,456,-871,-1043,-2620,1570,-1146,38,-925,-994,-3336,2065,-689,-304,-1137,-854,-3670,2314,-40,-595,-1323,-740,-3697,2249,467,-875,-1498,-639,-3398,2308,1291,-1229,-1727,-401,-3058,2240,1895,-1566,-2030,152,-2907,1562,1617,-1750,-2237,815,-2416,27,828,-2069,-2535,693,-996,-1795,492,-2832,-3116,462,-12,-3303,-583,-3759,-3820,-361,1054,-4343,-2706,-3756,-3881,-1321,1637,-4892,-3923,-3017,-2918,-1690,1126,-3911,-4706,-2297,-1984,-1486,838,-1952,-4979,-1553,-1187,-1195,514,-601,-4543,-1040,-686,-1038,240,67,-3609,-741,-328,-876,186,585,-2338,-544,-5,-724,319,690,-1239,-362,302,-642,428,437,-634,-123,621,-613,373,145,-265,83,788,-610,356,66,84,252,843,-605,285,55,308,331,824,-593,186,4,352,385,786,-602,87,-11,331,396,763,-588,27,11,346
928,-523,17,-387,-404,-452,1038,-514,-152,-542,-323,-594,1101,-539,-371,-734,-118,-663,1054,-604,-686,-1210,361,-811,857,-633,-968,-1844,953,-873,531,-840,-1147,-2818,1626,-835,195,-1035,-1104,-3528,2099,-704,-76,-1313,-944,-4093,2250,-418,-293,-1632,-704,-4073,2519,267,-652,-1983,-440,-3867,2645,794,-1225,-2093,-4,-3393,2699,1288,-1499,-2058,658,-2968,1267,1102,-1391,-1883,919,-2164,-110,743,-1543,-1916,1030,-1130,-1277,853,-2201,-2076,962,-7,-2869,908,-3313,-2681,1034,1662,-4011,1753,-4250,-3156,776,2341,-4745,1875,-4147,-3242,433,2331,-5134,999,-3389,-2895,17,2320,-5384,-401,-2540,-2289,-342,2372,-5156,-1219,-1685,-1689,-596,1976,-3957,-1489,-1147,-1254,-750,1549,-2574,-1508,-644,-797,-798,1258,-1179,-1158,-144,-473,-822,952,-544,-729,307,-312,-833,586,-182,-266,610,-282,-805,222,55,-11,728,-275,-713,40,225,113,777,-226,-626,-121,193,216,799,-217,-585,-202,117,278,839,-193,-569,-245,113,277
977,-343,52,-211,-154,-71,991,-346,40,-87,-193,-99,1024,-370,-41,-116,-330,-238,1106,-352,-416,-328,-391,-408,1120,-337,-904,-877,-74,-581,924,-363,-1294,-1728,556,-525,606,-606,-1478,-2968,1074,-370,320,-928,-1378,-3780,1508,6,84,-1349,-1098,-4313,1940,560,-188,-1782,-630,-4254,2335,938,-462,-1883,-67,-3583,2243,1105,-558,-1807,280,-2882,1746,1189,-543,-1708,553,-2185,1120,1213,-582,-1608,763,-1649,570,1113,-733,-1608,936,-1043,-87,1176,-1068,-1786,950,-476,-1087,882,-1980,-2584,1020,585,-2628,568,-2823,-4024,691,2478,-3866,352,-3133,-4982,-277,3885,-4663,-1350,-2780,-4490,-1285,4652,-5073,-2837,-2041,-3183,-1563,3810,-4431,-3230,-1359,-2126,-1411,2800,-2866,-2955,-907,-1442,-1172,1929,-1722,-2367,-553,-852,-958,1315,-966,-1680,-240,-378,-859,838,-595,-1036,77,-65,-811,436,-240,-424,298,87,-780,116,-57,9,497,181,-737,-142,3,371,642,186,-690,-272,30,586,748,194,-635,-307,48,662
798,-577,-6,532,563,-85,717,-619,31,698,1064,-218,632,-686,76,1083,1555,-510,478,-708,237,578,1385,-661,307,-687,335,89,1146,-772,168,-797,459,-456,1183,-804,-6,-898,612,-1031,1487,-895,-227,-892,853,-1512,1868,-1278,-447,-814,1086,-1877,2170,-1589,-696,-592,1454,-2098,2346,-1784,-885,-272,1844,-1931,1827,-1416,-1072,-64,2067,-1209,856,-403,-1363,-335,2344,-238,-446,866,-1857,-910,2742,791,-2206,1584,-2623,-1718,3162,2257,-3719,2197,-2865,-2532,2990,3109,-4519,2226,-2586,-2892,2196,3607,-5034,1178,-2166,-2595,1307,3349,-5228,410,-1493,-2101,450,2610,-4354,-108,-994,-1654,103,1636,-3142,-516,-589,-1235,-119,1010,-2020,-668,-305,-870,-358,742,-1105,-560,10,-651,-542,390,-360,-222,269,-557,-605,152,105,-71,405,-475,-671,-28,272,18,532,-448,-700,-147,339,136,609,-413,-693,-149,351,156,657,-383,-667,-158,324,170,683,-364,-653,-154,300,142,694,-367,-626,-177,310,95
869,-470,312,-159,-163,-77,906,-484,268,-183,-159,-146,969,-554,174,-263,-172,-260,1060,-697,2,-321,1,-504,1080,-908,-291,-960,20,-869,968,-1158,-564,-1743,281,-1245,617,-1377,-648,-2769,743,-1444,172,-1496,-466,-3573,1448,-1377,-119,-1568,-146,-4128,1881,-1113,-381,-1581,248,-4142,2264,-472,-669,-1599,663,-3693,2749,97,-1086,-1451,1252,-3088,2584,422,-1277,-1343,1674,-2232,1588,792,-1370,-1185,1772,-1051,289,1212,-1739,-1271,1795,-86,-676,1850,-2455,-1950,1928,839,-2574,2890,-2842,-2818,1849,1930,-3834,3435,-2748,-3268,1364,2438,-4645,2768,-2251,-3035,804,2508,-5074,1290,-1637,-2350,244,2094,-5168,-140,-1069,-1684,-105,1479,-4194,-930,-722,-1206,-290,1064,-2963,-1225,-433,-820,-474,661,-1931,-1145,-189,-563,-617,386,-1163,-889,29,-350,-723,257,-517,-488,241,-233,-788,146,-225,-140,426,-176,-813,75,23,80,530,-126,-818,39,192,194,615,-95,-799,-61,217,277,652,-82,-779,-174,131,333
726,-313,592,-8,-99,-49,748,-303,617,33,-135,71,780,-320,601,-15,-275,59,832,-355,560,-55,-370,14,899,-423,482,-114,-478,-78,1052,-659,249,-342,-584,-344,1106,-916,-163,-863,-426,-883,901,-1104,-469,-1793,188,-1391,520,-1244,-478,-2753,835,-1691,108,-1352,-336,-3686,1249,-1704,-162,-1511,-129,-4286,1512,-1283,-382,-1672,198,-4148,1981,-473,-672,-1670,441,-3554,2378,252,-1140,-1679,851,-3091,2644,759,-1469,-1443,1611,-2699,1349,997,-1522,-1447,1954,-1584,-96,1382,-1954,-1800,2209,-116,-1449,1798,-2535,-2562,2244,924,-3142,1493,-2835,-3479,1828,2007,-4251,219,-2664,-3738,1134,3289,-4838,-1205,-2185,-3090,427,3587,-5008,-2014,-1584,-2340,-1,2952,-4472,-2190,-1019,-1664,-266,2256,-3240,-2073,-700,-1226,-439,1818,-2171,-1775,-422,-806,-658,1256,-1299,-1356,-172,-480,-859,854,-582,-830,55,-324,-938,499,-87,-440,264,-242,-904,200,207,-102,424,-198,-853,-27,306,102,548,-157,-808,-142,364,258
948,-407,67,-621,-128,-137,971,-406,38,-451,-155,-158,979,-408,-105,-395,-161,-165,959,-446,-388,-444,150,-85,931,-572,-785,-868,507,-128,753,-762,-1069,-1639,1098,-294,510,-1063,-1121,-2531,1635,-441,232,-1429,-961,-3304,2268,-542,13,-1725,-689,-3598,2885,-542,-292,-1887,-332,-3512,3237,-477,-576,-1817,-43,-3089,3278,-240,-825,-1806,322,-2654,3083,68,-978,-1598,749,-2074,2277,308,-1002,-1317,1006,-1552,1216,546,-1119,-1277,1223,-1163,597,829,-1357,-1584,1364,-457,-460,653,-1943,-2083,1421,306,-2106,255,-2321,-3292,1116,2367,-3662,819,-2331,-4340,564,3822,-4547,508,-2127,-4417,-156,4590,-5015,-765,-1606,-3431,-864,4268,-4913,-2124,-1082,-2400,-1077,3474,-3489,-2538,-644,-1574,-1012,2619,-2058,-2117,-347,-1125,-940,1699,-1562,-1741,-160,-691,-921,1027,-895,-1305,-21,-309,-941,635,-472,-832,165,-37,-965,291,-169,-258,340,94,-917,118,99,145,497,142,-845,-57,220,349,592,155,-784,-136,217,456
939,-746,-45,-284,-329,-383,990,-856,-389,-538,-204,-650,918,-957,-800,-1259,334,-922,698,-1138,-954,-2115,988,-1110,349,-1376,-908,-3185,1630,-1232,22,-1532,-723,-3734,2221,-1124,-258,-1632,-407,-4001,2612,-824,-485,-1719,-162,-3866,2887,-345,-815,-1676,192,-3343,3111,216,-996,-1708,539,-2928,2531,447,-1025,-1584,932,-2461,1290,371,-1009,-1366,1126,-1697,335,779,-1046,-1392,1245,-1081,-350,1354,-1024,-1611,1165,-353,-1266,1212,-1573,-1819,1212,284,-1491,764,-2904,-2864,1575,1586,-2935,1198,-3723,-4322,1097,3072,-4050,1072,-3717,-4990,240,4106,-4768,-709,-3131,-4148,-524,3879,-5113,-2228,-2309,-2940,-911,2789,-4188,-3033,-1696,-2024,-942,1954,-2681,-2959,-1175,-1343,-929,1011,-1616,-2431,-849,-852,-929,486,-890,-1823,-485,-306,-955,473,-114,-1093,-132,-5,-967,310,297,-398,163,99,-906,35,283,79,365,132,-847,-131,314,353,466,170,-785,-177,362,481,521,161,-750,-196,318,548,528,144,-745,-204,336,656
851,-795,-296,-434,451,-164,757,-897,-531,-974,725,-391,549,-1189,-654,-1519,1429,-551,293,-1443,-637,-2070,2050,-806,-10,-1758,-447,-2515,2841,-1022,-271,-1779,-221,-2629,3130,-1229,-493,-1744,-4,-2879,3092,-1186,-658,-1652,311,-2907,2825,-987,-812,-1583,672,-2838,2341,-717,-902,-1628,1249,-2068,1623,-112,-1003,-1591,1457,-906,495,61,-1213,-1701,1437,250,-746,185,-1764,-2152,1367,1331,-2082,431,-2441,-3416,1003,2831,-3645,845,-2729,-4436,417,3999,-4475,536,-2549,-4727,-363,4750,-5009,-261,-2049,-4054,-745,4909,-4854,-953,-1500,-3110,-904,4100,-4603,-1287,-1007,-2246,-1048,2753,-3889,-1480,-695,-1558,-966,1626,-2204,-1170,-395,-953,-1038,1013,-1010,-544,18,-705,-931,378,-393,-36,425,-584,-707,-64,-82,263,636,-491,-591,-170,71,346,764,-401,-561,-233,90,359,798,-364,-558,-261,70,305,789,-342,-551,-294,12,229,788,-322,-554,-269,81,168,774,-295,-554,-261,211,163,762,-278,-557,-279,354,192
760,-606,219,441,-250,-332,804,-497,41,408,-223,-335,880,-437,-156,251,-70,-291,950,-438,-370,-45,264,-262,948,-496,-570,-502,622,-266,875,-574,-813,-1103,1061,-381,657,-708,-988,-1791,1864,-375,421,-975,-1025,-2406,2540,-328,124,-1260,-927,-2740,3138,-198,-127,-1530,-804,-2773,3420,-101,-370,-1661,-641,-2681,3271,-258,-507,-1774,-510,-2649,2864,-370,-578,-1782,-242,-2338,2408,-316,-543,-1730,72,-1890,1942,-177,-643,-1598,403,-1461,1502,-77,-909,-1591,755,-939,1008,258,-1234,-1658,919,-366,142,493,-1644,-1912,716,352,-1043,693,-2213,-2624,361,948,-2340,781,-2704,-3634,-549,2024,-3791,573,-2579,-4016,-1490,3288,-4478,488,-1889,-3753,-2252,4121,-4563,640,-1025,-2949,-2265,4152,-3807,413,-382,-2139,-1937,3701,-2834,192,16,-1499,-1543,3170,-1961,195,299,-990,-1286,2568,-1547,274,609,-500,-939,1912,-1059,456,802,-245,-562,1364,-824,504,988,-128,-331,774,-485,428,1024,-121,-84,519,-242,343
474,-798,161,-209,162,-188,594,-841,80,-303,268,-255,742,-853,-157,-365,483,-336,831,-868,-455,-566,1005,-451,720,-986,-709,-1064,1509,-736,442,-1169,-853,-1563,2165,-848,160,-1377,-888,-1970,2637,-834,-112,-1527,-794,-2177,2818,-755,-255,-1669,-714,-2501,2604,-681,-423,-1687,-513,-2324,2577,-467,-559,-1503,-255,-2103,2232,-416,-688,-1409,25,-1968,1908,-96,-803,-1517,377,-1630,1562,261,-843,-1579,648,-1153,554,184,-797,-1650,587,-522,-298,145,-822,-1782,390,131,-964,165,-982,-1957,33,898,-1631,247,-1163,-2235,-323,1562,-2366,553,-1111,-2528,-844,2027,-3415,469,-555,-2522,-1404,2015,-3222,-238,28,-1979,-1521,2495,-2062,-141,305,-1339,-1332,2286,-1351,-174,419,-881,-980,1852,-694,-74,431,-683,-637,1387,-308,-7,430,-554,-273,1008,-165,24,457,-496,-11,727,-164,8,505,-433,214,471,-132,7,506,-428,402,257,-27,42,476,-450,544,114,27,60,417,-493,644,-10,71,48
545,-816,230,-144,2,-256,510,-810,293,-87,30,-184,473,-800,356,-45,-48,-174,490,-785,370,99,-154,-61,557,-757,320,216,-234,24,650,-743,248,219,-232,19,762,-731,123,178,-76,-61,897,-728,-121,23,319,-162,960,-735,-353,-235,800,-323,898,-732,-661,-844,1315,-700,703,-793,-897,-1597,1830,-932,459,-1019,-1035,-2179,2475,-731,230,-1257,-1000,-2536,2847,-635,10,-1433,-848,-2600,2893,-683,-233,-1570,-760,-2560,2826,-551,-658,-1682,-377,-2122,2722,-80,-1054,-1674,159,-1581,2096,-49,-1303,-1644,454,-1157,1241,105,-1433,-1848,521,-652,414,591,-1314,-2160,277,-198,-602,598,-970,-2538,-234,576,-1673,510,-514,-2660,-768,1472,-2380,442,14,-2385,-1195,2337,-2573,248,424,-1890,-1316,2704,-2093,383,658,-1335,-1176,2617,-1368,608,729,-963,-925,2221,-850,630,745,-640,-649,1740,-460,556,710,-437,-351,1234,-255,346,675,-222,-57,764,-139,89,602,-177,193,180,-30,-91
691,-716,215,530,-118,-159,689,-672,188,513,-187,-156,719,-648,102,461,-344,-54,821,-656,-149,349,-159,65,883,-640,-491,31,264,61,813,-711,-959,-880,1033,-248,571,-927,-1282,-1854,1929,-371,214,-1370,-1384,-2777,2929,-373,-81,-1702,-1274,-3214,3363,-427,-360,-1981,-937,-3501,3051,-756,-533,-2041,-595,-3039,2681,-423,-839,-1849,-51,-2271,2697,256,-1121,-1697,527,-1640,2198,703,-1261,-1636,810,-944,994,970,-1440,-1774,813,-389,-401,1150,-1583,-2136,505,133,-2029,1319,-1261,-2550,-233,654,-3202,635,-987,-2392,-683,1231,-3219,-217,-505,-2015,-1068,1671,-2440,-540,-98,-1474,-1197,1704,-1788,-754,175,-996,-1061,1334,-1095,-813,369,-768,-869,1065,-603,-573,542,-601,-607,691,-301,-532,610,-500,-371,507,-12,-400,614,-467,-105,259,159,-329,582,-499,85,95,200,-279,519,-533,240,-37,175,-173,441,-583,389,-141,147,7,358,-644,500,-162,65,232,283,-684,600,-166,-100,395
420,-930,-458,-1668,1745,-482,304,-1033,-490,-1900,2044,-402,189,-1146,-497,-2003,2310,-249,74,-1200,-474,-2016,2442,-148,6,-1251,-440,-2039,2440,-49,-87,-1250,-287,-1945,2358,33,-249,-1291,-128,-1870,2168,130,-633,-1421,206,-1561,1841,608,-1020,-1586,540,-1007,1207,1079,-1219,-1750,554,-282,-258,1063,-1476,-1874,419,652,-1858,1265,-1732,-2216,90,1714,-3488,1856,-1649,-2430,-202,1624,-4381,1336,-1172,-2363,-536,1983,-4431,636,-720,-1952,-702,2019,-3636,93,-335,-1518,-708,1554,-2458,-273,-45,-1202,-631,1068,-1442,-490,148,-986,-493,761,-754,-458,283,-699,-275,602,-331,-339,429,-534,-99,206,-269,-295,545,-456,86,-101,-79,-206,604,-439,251,-293,142,-82,610,-465,419,-465,242,-10,615,-515,536,-525,241,57,605,-557,610,-502,184,80,594,-598,613,-470,131,107,543,-610,594,-402,63,136,481,-619,538,-403,46,218,418,-634,537,-407,56,362,417,-691,529,-426,-51,447
898,-456,-244,-62,152,69,935,-463,-338,-190,258,62,958,-458,-483,-399,411,32,974,-437,-765,-691,860,48,833,-466,-953,-1086,1583,175,580,-663,-1126,-1915,2212,-28,345,-897,-1211,-2583,2786,2,74,-1194,-1185,-3150,3328,88,-170,-1484,-1064,-3395,3541,118,-444,-1649,-826,-3235,3266,-10,-652,-1740,-571,-2964,2687,34,-750,-1840,-220,-2499,1951,144,-1004,-1914,226,-1932,1235,356,-1396,-2230,412,-1070,34,701,-1923,-2545,307,98,-1632,709,-2604,-3403,-456,1624,-3392,67,-3091,-3976,-1490,2715,-4393,-1837,-2881,-3966,-2065,3546,-4787,-3357,-2359,-3302,-2195,3711,-4078,-4366,-1850,-2499,-2051,3094,-3213,-4789,-1372,-1630,-1884,2496,-2047,-4477,-1054,-891,-1785,1892,-1170,-3703,-782,-309,-1577,1249,-379,-2531,-530,98,-1353,713,-142,-1570,-216,357,-1094,259,1,-590,71,426,-879,-17,4,53,366,419,-721,-131,-89,434,548,432,-666,-168,-139,479,607,539,-656,-365,-276,253,626,605,-639,-526,-255,287
973,-382,-158,-164,299,320,987,-338,-281,-499,421,47,1039,-138,-592,-1291,764,-216,1004,11,-916,-1690,860,-12,861,-141,-1217,-2343,1340,358,644,-411,-1390,-2996,1892,607,408,-723,-1463,-3529,2397,842,218,-980,-1466,-3831,2536,910,-1,-1219,-1418,-3862,2376,804,-120,-1397,-1350,-3736,1990,610,-220,-1512,-1144,-3393,1477,550,-349,-1691,-863,-2820,1016,798,-517,-1938,-433,-1969,389,958,-665,-2238,-183,-967,-250,978,-836,-2474,-300,370,-1189,617,-1077,-2730,-689,1595,-2005,-116,-1434,-3094,-1291,3091,-3070,-635,-1423,-3376,-1976,4115,-4139,-1712,-973,-3038,-2429,4759,-3802,-2508,-574,-1930,-2413,4717,-2595,-2090,-270,-1171,-2063,3656,-1885,-1889,-18,-660,-1609,2413,-1012,-1478,152,-419,-1154,1578,-455,-984,349,-189,-748,1003,-325,-606,557,-22,-459,704,-433,-307,789,58,-233,467,-492,29,918,67,-62,313,-401,257,999,54,31,253,-342,389,1026,42,67,224,-242,467,1018,24,71,178,-252,514
748,-693,-111,-192,-52,-261,827,-608,-322,-372,155,-259,900,-442,-723,-829,594,-161,753,-346,-1041,-1416,1341,125,474,-438,-1308,-2223,2150,375,243,-621,-1450,-2812,2723,606,57,-892,-1524,-3353,3064,698,-77,-1102,-1562,-3611,3065,642,-177,-1289,-1519,-3586,2723,510,-251,-1418,-1418,-3382,2311,563,-380,-1606,-1009,-2713,1752,883,-532,-1741,-641,-1945,1033,915,-713,-1997,-252,-997,227,1044,-853,-2257,-181,-32,-559,897,-1144,-2595,-514,1391,-1553,717,-1351,-3009,-1222,2562,-2837,421,-1593,-3346,-1767,3512,-3989,-954,-1542,-3416,-2246,4451,-4552,-2505,-1225,-2999,-2446,4969,-4098,-2520,-922,-2143,-2308,4748,-3450,-2815,-613,-1410,-2095,3986,-2575,-2518,-321,-765,-1790,2810,-1676,-1976,-97,-365,-1532,1894,-917,-1266,177,-62,-1234,1005,-514,-565,426,98,-962,443,-227,55,648,102,-704,-10,-53,421,786,105,-530,-252,6,609,885,64,-415,-445,68,712,940,46,-313,-413,355,906,943,-18,-225,-443,526,950
833,-584,-31,-164,-9,8,846,-571,-72,-222,-27,-49,849,-548,-114,-358,-96,-73,911,-520,-274,-685,-228,-166,1018,-372,-683,-1061,40,-359,1023,-191,-1139,-1538,755,-34,785,-121,-1458,-2370,1536,153,499,-275,-1652,-3231,2032,203,255,-594,-1797,-3804,2274,671,24,-874,-1782,-4029,2376,1049,-182,-1181,-1706,-4016,2354,1316,-305,-1357,-1540,-3810,2058,1206,-389,-1608,-1265,-3421,1584,1172,-487,-1837,-855,-2747,1185,1113,-761,-2113,-355,-1866,548,1134,-968,-2492,-154,-713,-170,1205,-1263,-2727,-420,789,-1282,657,-1675,-3224,-1181,2317,-2813,-108,-1987,-3762,-2101,3646,-3977,-1902,-1801,-3862,-2930,4549,-4307,-3555,-1517,-3235,-3113,4998,-3493,-4252,-1189,-2237,-2898,4550,-2547,-4570,-936,-1323,-2484,3614,-1558,-4069,-705,-660,-2016,2580,-638,-2998,-514,-271,-1694,1675,-165,-2026,-332,24,-1335,903,32,-1054,-114,234,-1056,431,32,-298,165,333,-818,65,-48,382,433,312,-688,-109,-68,798,669,279,-610,-256,-40,980
929,-385,-386,-209,93,-70,973,-273,-654,-430,278,31,862,-129,-966,-907,660,265,565,-98,-1273,-1741,1228,626,207,-274,-1485,-2538,1906,1123,-133,-664,-1613,-3190,2522,1692,-390,-1032,-1620,-3478,2881,1920,-583,-1317,-1561,-3534,2841,1818,-753,-1615,-1320,-3395,2307,1616,-787,-1878,-891,-2918,1620,1582,-827,-2019,-330,-2102,712,1082,-850,-2077,-108,-1235,-237,562,-968,-2177,-148,-161,-1119,67,-1459,-2443,-343,830,-1828,-554,-2405,-3159,-917,2124,-3252,-1702,-2922,-3838,-1888,3316,-4240,-3252,-2809,-3865,-2613,4081,-4290,-4324,-2478,-3167,-2718,4340,-3198,-4892,-1942,-1986,-2392,3381,-2067,-5121,-1442,-1126,-1956,2401,-714,-4029,-1095,-599,-1645,1697,-109,-2662,-741,-176,-1284,710,57,-1562,-379,165,-945,338,125,-605,-8,433,-689,106,-10,27,272,500,-594,-46,-138,330,441,535,-509,-140,-101,560,504,535,-463,-185,-80,754,600,471,-445,-272,-104,919,708,421,-425,-248,-108,1027,814,378,-409,-261,-134,1032
987,-282,-224,-44,20,-16,999,-205,-406,-167,50,-14,980,-42,-833,-608,317,160,813,23,-1270,-1483,875,386,522,-234,-1629,-2622,1796,895,252,-665,-1837,-3563,2715,1190,45,-1142,-1885,-3994,3283,1278,-224,-1598,-1769,-4022,3467,1170,-443,-1819,-1490,-3655,3111,856,-691,-1983,-1056,-3192,2472,765,-784,-1980,-404,-2440,1801,960,-1021,-2112,96,-1660,857,837,-1148,-2126,263,-743,-412,456,-1442,-2132,101,334,-1541,226,-2007,-2449,-203,1296,-2971,239,-2737,-2880,-902,2128,-4154,-733,-3032,-3072,-1380,2748,-4780,-1703,-2740,-2969,-1608,3677,-5099,-1983,-2182,-2456,-1631,3643,-4915,-2381,-1550,-1846,-1516,3356,-4081,-2239,-1052,-1353,-1294,2738,-3018,-1634,-606,-1026,-1176,1912,-2356,-1180,-168,-701,-1188,805,-1804,-684,196,-595,-1046,483,-826,-179,435,-523,-694,353,-250,213,607,-533,-486,90,-152,209,716,-536,-403,66,-33,223,757,-532,-391,7,25,192,784,-528,-407,-67,47,136,794,-515,-421,-117,138,113
738,-738,-35,-302,48,-148,804,-724,-219,-431,126,-183,841,-673,-546,-725,326,-250,786,-583,-1035,-1298,922,-160,517,-651,-1417,-2010,1831,27,158,-906,-1731,-2814,2886,215,-146,-1124,-1899,-3463,3576,256,-433,-1454,-1912,-3821,4019,478,-598,-1743,-1734,-3802,3942,577,-673,-1831,-1422,-3526,3287,231,-658,-1824,-1080,-3107,2617,264,-664,-1840,-615,-2493,1758,326,-829,-2017,-168,-1779,946,521,-1097,-2284,111,-762,-49,697,-1392,-2462,-91,538,-1643,379,-1578,-2700,-645,1809,-2972,-167,-1758,-3029,-1272,2798,-4136,-1149,-1738,-3566,-1747,3582,-4753,-2342,-1597,-3796,-2078,4491,-4663,-3709,-1416,-3442,-2297,4952,-3980,-4509,-1316,-2455,-2307,4794,-2795,-4522,-1033,-1463,-2144,3619,-1993,-3989,-776,-801,-1859,2483,-971,-2923,-537,-319,-1629,1379,-409,-1873,-179,-77,-1170,439,-146,-821,224,129,-849,89,-245,-242,474,232,-701,-95,-256,41,637,319,-617,-109,-221,202,719,372,-589,-132,-194,233,764,413,-580,-108,-161,224
864,-537,-15,85,41,32,892,-527,-17,77,3,-44,989,-465,-176,46,75,-32,1068,-328,-496,-231,333,-55,1028,-193,-985,-922,962,61,856,-362,-1348,-1828,1719,179,561,-698,-1642,-2865,2514,172,305,-1023,-1753,-3491,3118,291,54,-1403,-1748,-3837,3441,296,-119,-1642,-1575,-3837,3265,69,-229,-1743,-1353,-3524,2771,-129,-326,-1734,-1063,-3134,2261,-37,-437,-1717,-602,-2521,1528,249,-465,-1758,-336,-1887,870,404,-680,-1910,-65,-1141,109,589,-884,-2098,-132,-127,-816,697,-1190,-2299,-381,851,-1909,442,-1661,-2957,-1024,2152,-3401,-20,-2121,-3730,-1868,3449,-4329,-1386,-2160,-4072,-2540,4438,-4908,-3234,-1970,-3695,-2746,4961,-4546,-3969,-1620,-2686,-2662,4499,-3832,-4450,-1206,-1715,-2417,3723,-2437,-3968,-878,-884,-1967,2622,-1173,-2943,-562,-447,-1614,1567,-663,-2039,-251,-129,-1295,712,-332,-1127,12,71,-1080,253,-173,-383,264,203,-874,-179,-106,210,515,217,-700,-447,-68,615,695,181,-576,-538,-23,826
550,-863,-115,-98,336,51,526,-871,-98,-116,472,53,476,-872,-70,-113,461,59,477,-859,-56,-71,437,153,533,-767,-130,-10,457,240,601,-686,-299,26,681,445,553,-737,-496,-334,1068,301,431,-820,-705,-583,1470,265,244,-941,-874,-808,2018,209,23,-1083,-914,-1101,2357,102,-176,-1272,-840,-1307,2568,35,-415,-1385,-594,-1350,2617,8,-676,-1446,-197,-1357,2496,41,-1049,-1545,391,-1219,2047,120,-1362,-1733,710,-691,1146,369,-1674,-2004,598,-51,-125,570,-1758,-2334,-15,447,-1369,559,-1500,-2512,-841,1111,-2357,335,-910,-2260,-1582,1631,-2845,156,-133,-1540,-1860,1699,-2503,-183,313,-975,-1669,1463,-1784,22,520,-654,-1268,1064,-1173,121,683,-473,-908,668,-878,27,734,-445,-626,365,-491,60,701,-561,-393,108,-217,85,605,-666,-236,-64,3,-35,451,-782,-72,-240,104,-112,317,-922,59,-378,170,-109,201,-1023,169,-560,65,-215,156,-1099,206,-612,-8,-300
692,-777,-587,338,-262,-31,796,-736,-938,141,346,46,690,-704,-1334,-415,1224,-55,383,-820,-1557,-962,2157,19,-81,-1113,-1545,-1362,3022,148,-519,-1355,-1354,-1598,3341,136,-819,-1502,-1020,-1779,3126,21,-929,-1582,-623,-1708,2644,115,-909,-1557,-170,-1605,2125,76,-778,-1512,341,-1237,1570,109,-661,-1521,770,-918,954,138,-665,-1663,1093,-385,374,113,-913,-1791,1103,156,-354,-101,-1409,-2058,777,1048,-1309,-26,-1834,-2390,97,1843,-2659,152,-2047,-2765,-579,2243,-3859,-161,-2060,-2857,-993,2672,-4471,-372,-1655,-2747,-1367,2847,-4509,-551,-1367,-2239,-1398,2860,-3976,-712,-930,-1676,-1463,2480,-3448,-578,-453,-1188,-1528,1914,-2718,-439,-101,-850,-1441,1319,-1897,-323,207,-695,-1261,843,-1093,-10,479,-712,-1016,536,-421,172,621,-725,-702,204,106,154,621,-766,-453,-118,353,194,564,-818,-255,-217,615,243,498,-803,-91,-361,674,205,470,-801,11,-524,603,141,476,-747,63,-551,625,127
524,-771,-467,-587,1266,-23,439,-780,-511,-850,1567,-32,343,-832,-520,-1054,1778,34,227,-889,-554,-1232,1961,90,116,-977,-562,-1384,2071,211,31,-1057,-528,-1407,2126,325,-41,-1071,-477,-1453,2016,332,-77,-1102,-415,-1475,1890,379,-130,-1135,-348,-1507,1705,372,-212,-1207,-227,-1456,1418,379,-278,-1316,-89,-1327,1024,359,-376,-1478,91,-940,503,301,-410,-1538,122,-358,-118,198,-377,-1558,-41,194,-750,131,-313,-1594,-225,626,-1167,87,-272,-1622,-376,939,-1401,23,-230,-1639,-519,1243,-1556,-26,-146,-1588,-632,1420,-1647,-146,-36,-1455,-705,1486,-1614,-270,69,-1298,-707,1490,-1461,-293,182,-1086,-652,1378,-1239,-319,278,-911,-565,1262,-1045,-281,390,-702,-494,1079,-823,-263,423,-568,-360,795,-604,-207,483,-554,-238,486,-403,-98,495,-606,-98,296,-230,-59,493,-675,10,186,-178,-13,482,-760,98,133,-117,49,437,-813,158,90,-152,12,376,-841,217,48,-270,-73
545,-881,-63,-166,209,-314,648,-859,-177,-272,385,-368,731,-852,-307,-426,638,-458,754,-839,-413,-573,964,-506,723,-814,-452,-747,1244,-492,653,-783,-460,-1001,1455,-541,570,-782,-485,-1274,1628,-532,430,-783,-497,-1530,1811,-436,306,-830,-479,-1705,1915,-213,222,-888,-444,-1807,1874,-13,151,-927,-397,-1796,1723,150,97,-955,-367,-1819,1545,232,17,-1005,-301,-1863,1299,310,-59,-1099,-248,-1908,997,390,-96,-1289,-154,-1848,501,512,-66,-1464,-92,-1439,123,541,-100,-1548,-10,-904,-283,264,-180,-1578,-21,-343,-684,96,-232,-1650,-127,272,-1125,-40,-267,-1694,-298,822,-1505,-238,-256,-1724,-491,1369,-1804,-367,-165,-1681,-691,1743,-1944,-500,-33,-1572,-787,1853,-1801,-581,75,-1424,-767,1901,-1433,-461,196,-1290,-721,1837,-1207,-436,305,-1089,-666,1700,-914,-476,369,-903,-579,1531,-693,-460,404,-717,-446,1271,-472,-398,433,-612,-295,984,-365,-331,466,-529,-96,751,-249,-141
806,-604,-297,-218,-321,-510,860,-569,-343,-217,-243,-515,933,-447,-483,-184,-75,-518,1015,-313,-692,-374,201,-480,1051,-247,-845,-612,570,-391,1006,-202,-969,-1041,982,-332,924,-174,-1052,-1440,1320,-245,824,-197,-1096,-2087,1555,-333,706,-278,-1063,-2648,1668,-336,573,-439,-955,-2902,1714,35,425,-570,-773,-2848,1778,649,278,-730,-595,-2789,1768,979,129,-942,-329,-2510,1712,1304,-108,-1139,-184,-2199,1433,1233,-292,-1232,-15,-1792,944,878,-437,-1401,46,-1432,492,989,-537,-1592,145,-948,-77,905,-538,-1663,91,-487,-618,604,-520,-1693,-7,-23,-1180,418,-389,-1723,-197,358,-1678,209,-307,-1713,-380,749,-2071,-209,-244,-1637,-599,1210,-2513,-643,-133,-1497,-797,1599,-2617,-806,7,-1328,-879,1779,-2660,-895,124,-1179,-915,1963,-2617,-891,262,-950,-936,2062,-2554,-958,463,-694,-1036,1994,-2207,-771,594,-513,-908,1615,-1462,-431,672,-427,-766,1198,-1033,-314,728,-410,-595,640,-692,-355
875,-489,-978,-1443,1187,-732,699,-475,-1155,-2067,1633,-560,531,-602,-1178,-2586,1947,-262,367,-808,-1133,-2987,2207,77,182,-950,-949,-3057,2327,417,-56,-1107,-771,-3036,2221,738,-325,-1268,-473,-2670,2072,1236,-515,-1418,-257,-2358,1599,1111,-588,-1559,-101,-1972,837,722,-606,-1661,-27,-1460,225,554,-617,-1754,-8,-784,-484,509,-595,-1832,-142,-156,-1119,294,-569,-1970,-367,476,-1820,-187,-583,-2077,-650,1303,-2373,-477,-565,-2147,-976,2098,-2958,-870,-495,-2049,-1232,2669,-3117,-1263,-262,-1682,-1389,2829,-2911,-1429,-38,-1308,-1329,2669,-2361,-1300,123,-903,-1151,2296,-1886,-1156,316,-583,-1023,1777,-1573,-1067,479,-332,-906,1354,-1132,-849,612,-211,-724,842,-736,-632,690,-156,-522,507,-481,-423,774,-157,-323,189,-351,-280,833,-191,-189,55,-266,-119,862,-242,-71,-41,-227,46,879,-293,-12,-72,-247,128,882,-322,8,-85,-267,183,869,-355,0,-91,-297,224,853,-373,-19,-125,-334,252
946,-511,-252,-63,10,-254,1092,-383,-480,-189,130,-372,1148,-246,-757,-405,431,-363,1065,-155,-1039,-879,840,-231,850,-169,-1230,-1510,1225,-109,527,-295,-1293,-2308,1599,9,276,-487,-1220,-2922,1836,209,40,-758,-1060,-3315,1940,524,-100,-1138,-909,-3323,1942,986,-349,-1307,-603,-2974,1721,1252,-571,-1499,-398,-2703,1229,1447,-746,-1738,-155,-2081,593,1593,-997,-1886,-8,-1519,-358,968,-1252,-2028,-35,-862,-1337,236,-1579,-2327,-460,450,-2842,-206,-1715,-2686,-1169,1565,-3994,-796,-1591,-2877,-1718,2281,-4706,-1934,-1238,-2761,-2055,2923,-4433,-2733,-850,-2109,-2073,3211,-3510,-3110,-675,-1378,-1740,2849,-2604,-2983,-479,-784,-1396,2365,-1886,-2298,-238,-390,-1150,1735,-1432,-1742,51,-129,-919,1145,-950,-1048,289,-26,-754,693,-575,-514,528,-6,-563,281,-282,-74,716,-79,-412,-31,-114,220,838,-155,-310,-209,-28,359,899,-217,-224,-333,22,415,930,-248,-168,-410,9,411,945,-280,-123,-437,43,461
890,-506,-395,-202,199,-2,937,-440,-631,-344,383,30,895,-390,-940,-654,836,152,756,-397,-1264,-1230,1305,217,480,-605,-1597,-2095,2099,401,169,-931,-1678,-2662,2885,625,-113,-1329,-1567,-3164,3399,591,-365,-1577,-1353,-3227,3591,612,-800,-1775,-958,-2958,3592,888,-1136,-1812,-341,-2316,3045,1060,-1273,-1818,126,-1623,1808,710,-1324,-1793,349,-826,580,635,-1361,-1829,262,-113,-525,651,-1676,-2097,36,676,-1834,782,-2102,-2555,-386,1597,-3299,919,-2546,-3160,-1012,2375,-4340,544,-2674,-3345,-1301,2779,-4651,134,-2420,-3133,-1910,3248,-5109,-1209,-1858,-2540,-2093,3260,-4999,-1867,-1275,-1824,-1969,2890,-3724,-1899,-862,-1249,-1745,2136,-2644,-1692,-497,-798,-1502,1250,-1653,-1292,-197,-454,-1342,638,-877,-779,149,-302,-1131,29,-328,-245,453,-276,-895,-165,-61,125,671,-260,-696,-309,110,266,818,-270,-509,-378,278,295,900,-241,-400,-333,368,264,916,-239,-330,-62,317,202,916,-225,-315,219,272,118
317,-575,689,325,-740,296,231,-635,734,481,-1048,596,128,-702,704,600,-1437,786,104,-758,586,588,-1862,951,182,-922,417,573,-2002,895,217,-1047,317,703,-2039,812,219,-1105,139,705,-2224,696,219,-1093,-72,682,-2175,548,93,-1028,-226,827,-1900,622,62,-1056,-548,771,-1598,817,62,-1074,-904,637,-739,792,-19,-1263,-1165,383,634,622,-204,-1706,-1318,49,2148,100,-652,-2458,-1109,-293,3698,-1277,-1035,-2858,-541,-503,4289,-2763,-1148,-2976,-104,-704,3920,-3928,-1279,-2808,328,-1226,3412,-4654,-1267,-2258,591,-954,2745,-4824,-1177,-1665,721,-804,2042,-4579,-1089,-1042,822,-583,1425,-3915,-942,-583,913,-467,938,-2944,-769,-203,947,-216,533,-1811,-531,62,950,-51,171,-889,-334,194,941,47,36,-238,-168,219,946,181,-16,437,-16,169,919,277,-189,949,134,74,834,409,-409,1455,218,-24,761,497,-549,1845,394,-174,649,639,-775,2187,577,-305,521,549,-888,2159
-718,-9,1127,-753,-130,988,-486,147,1308,-571,297,796,-11,270,1499,-175,942,-56,441,64,1503,444,1956,-1237,886,-286,1305,944,3057,-2521,1133,-756,1021,1019,3867,-3154,1211,-1091,677,737,4359,-2879,1184,-1365,362,797,4173,-2303,1172,-1558,49,815,3256,-1402,1195,-1599,-447,588,2515,-683,1092,-1714,-861,127,899,77,1062,-2091,-966,-589,-899,1226,1137,-2581,-868,-1198,-2503,2585,1244,-2910,-524,-2256,-3496,3666,1410,-3095,116,-2883,-3932,4302,1359,-2850,983,-3243,-3200,4909,1195,-2383,1541,-3021,-2126,4826,1075,-1766,1742,-2375,-1022,4277,980,-1175,1677,-1650,-280,3606,764,-500,1499,-1077,301,2874,501,-37,1272,-626,576,2083,207,290,1052,-337,640,1370,0,477,878,-191,613,976,-200,641,754,-67,399,715,-242,757,718,89,97,536,-246,754,678,218,-4,202,-310,712,601,341,0,-171,-409,644,521,353,12,-435,-511,589,478,427,-54,-594,-585,558,447,476,-89,-702
-732,-518,353,-484,153,92,-850,-471,396,-496,231,-91,-981,-461,449,-444,355,-132,-1026,-386,550,-349,609,-177,-1019,-277,780,-352,931,-231,-736,-265,1016,77,1534,-537,-362,-398,927,400,2254,-823,63,-603,772,744,2820,-1155,392,-768,620,1011,3167,-1378,726,-955,363,913,3417,-1607,779,-1162,-45,570,3054,-1234,918,-1328,-411,675,1897,-490,981,-1588,-888,208,482,383,1178,-1827,-1153,-524,-1546,1378,1295,-2136,-1193,-1471,-2936,1867,1261,-2447,-1063,-2332,-3606,1995,1212,-2638,-631,-2979,-4104,1923,1055,-2753,-24,-3466,-4120,2149,883,-2608,592,-3381,-3591,2451,752,-2217,991,-3101,-2775,2694,557,-1646,1140,-2649,-1762,2655,378,-1164,1173,-2141,-1130,2337,164,-692,1156,-1333,-633,1832,-24,-363,1044,-824,-218,1432,-214,-77,918,-361,4,1043,-362,131,802,-116,121,744,-510,270,691,-19,204,436,-649,355,586,31,229,173,-756,354,505,29,176,-37,-844,326,457,71,83,-181
-988,-341,287,48,-18,-152,-957,-202,409,260,-425,-441,-756,-99,753,139,-402,-745,-472,-142,995,182,307,-1028,-49,-249,1108,367,1343,-1557,390,-477,1120,1053,2380,-2221,815,-677,1062,951,3239,-2847,1187,-1058,821,408,4119,-3080,1251,-1365,392,273,4233,-2490,1416,-1416,-177,478,3213,-1196,1239,-1381,-891,457,1665,-296,1276,-1511,-980,-706,-574,527,1485,-1924,-946,-1276,-2534,1478,1424,-2425,-873,-1821,-3742,2320,1374,-2728,-909,-2488,-4306,2955,1317,-2868,-551,-3360,-4596,3286,1255,-2927,212,-3376,-4319,3154,1096,-2543,938,-2613,-3197,3138,874,-1879,1201,-1869,-1711,3095,606,-1214,1116,-1097,-690,2765,276,-604,922,-480,-54,2185,14,-192,733,-133,176,1709,-178,137,565,49,164,1329,-291,341,507,-22,-3,993,-383,470,538,-56,-205,565,-466,501,559,-83,-186,214,-571,479,545,-27,-128,-63,-661,449,526,48,-99,-224,-727,416,506,223,-32,-382,-800,387,490,438,64,-527
-778,-287,640,-265,-574,188,-552,-127,1054,155,-414,-148,-255,-81,1350,537,337,-746,118,-298,1531,860,1563,-1456,508,-613,1392,1526,2705,-2168,864,-939,994,2150,3443,-2927,1048,-1059,713,1780,3694,-3239,1068,-1296,443,1081,3597,-3086,1135,-1453,290,1015,3238,-2561,1126,-1453,-9,1043,2569,-1677,945,-1510,-400,832,1610,-768,1173,-1918,-757,497,-735,999,1326,-2252,-741,404,-2263,2748,1454,-2584,-544,-994,-3018,4018,1564,-2800,-80,-1908,-3537,4744,1578,-2768,443,-2456,-3412,4989,1344,-2424,877,-2783,-2615,4936,1101,-2063,1054,-2700,-1890,4445,833,-1669,1134,-1875,-1330,3568,605,-1187,1132,-1265,-630,3020,340,-671,1012,-718,-47,2375,106,-273,927,-463,180,1837,-100,37,849,-213,293,1262,-229,221,750,-24,300,812,-317,351,737,30,126,356,-436,373,721,272,30,-140,-617,308,611,411,21,-483,-751,249,528,455,-130,-541,-833,223,484,393,-222,-505,-862,213,517,260,-322,-581
-805,-649,469,197,1420,-638,-683,-713,596,506,1912,-692,-474,-763,637,854,2311,-639,-205,-817,592,1054,2669,-674,-4,-852,527,1145,2860,-688,134,-911,460,1243,2701,-612,258,-1016,413,1367,2257,-554,369,-1165,340,1309,1633,-418,483,-1301,159,1038,1034,-257,569,-1351,-160,728,458,-279,605,-1433,-506,277,-72,-347,829,-1559,-847,-506,-819,-281,1192,-1812,-891,-1046,-1709,-66,1478,-2204,-699,-1425,-2865,607,1574,-2776,-138,-1968,-4043,2116,1310,-2879,586,-2100,-4115,3565,992,-2308,1371,-2400,-2888,4498,743,-1367,1632,-2259,-1185,4611,514,-685,1356,-1735,163,3876,426,-187,1086,-1329,646,3141,375,246,824,-882,792,2276,330,549,619,-506,649,1475,220,744,460,-212,324,541,61,804,372,-103,-42,-160,-135,787,351,-81,-449,-738,-301,728,379,-47,-775,-1200,-454,645,381,73,-926,-1602,-576,529,418,373,-1031,-2012,-621,404,423,544,-859,-2332,-727,16,351,680,-804,-2658
-646,-786,86,36,379,23,-642,-773,121,89,418,5,-641,-774,187,216,526,-9,-618,-757,347,306,703,-13,-594,-719,492,523,1171,-6,-479,-729,510,877,1653,-46,-319,-788,453,1320,2124,-146,-146,-885,328,1677,2310,-277,21,-1063,183,1956,2170,-535,112,-1260,63,1943,1836,-759,153,-1379,-37,1457,1397,-742,275,-1372,-264,798,798,-399,409,-1343,-523,293,178,-273,555,-1526,-807,-363,-687,-134,634,-2027,-914,-715,-1779,560,607,-2569,-568,-1191,-2734,2546,387,-2490,322,-2186,-2485,3823,127,-1953,1046,-2684,-1338,4530,-57,-1399,1147,-2673,-350,4470,-73,-794,1099,-2317,508,4081,-38,-288,904,-1843,892,3271,9,74,742,-1506,958,2367,22,365,607,-1116,835,1434,-10,583,525,-793,625,734,-90,712,476,-507,311,83,-193,746,464,-303,33,-382,-303,731,475,-127,-177,-866,-409,690,443,100,-277,-1363,-539,522,347,202,-458,-1718,-668,347,355,85,-625,-1663
-731,-723,405,516,904,297,-717,-687,532,734,1381,282,-589,-714,546,884,1848,319,-461,-776,427,1076,2108,248,-368,-797,301,1282,2207,200,-254,-818,183,1380,2080,67,-100,-948,105,1614,1815,-256,7,-1080,-242,1527,1598,-536,254,-1341,-211,1218,952,-506,394,-1364,-364,824,496,-430,502,-1447,-474,333,-249,-273,632,-1600,-677,-204,-1090,-4,799,-2063,-663,-751,-2189,703,763,-2610,-436,-1453,-3063,1866,580,-2836,723,-1885,-3749,3384,438,-2500,1560,-2297,-2534,4311,378,-1828,2038,-2272,-823,4849,441,-1084,1963,-1911,658,4616,534,-454,1641,-1483,1447,3936,590,87,1222,-1008,1643,2898,538,424,905,-619,1510,2002,398,665,546,-313,1224,1190,231,790,305,-106,836,639,24,876,147,-8,399,191,-158,889,87,63,55,-42,-315,897,16,74,-176,-150,-420,881,3,58,-325,-195,-487,875,-10,54,-365,-216,-502,863,-9,76,-433,-293,-452,853,49,140,-418,-449
-565,-651,446,748,1875,-283,-403,-644,420,1125,2175,-523,-248,-720,357,1337,2237,-766,-110,-855,334,1346,2041,-872,2,-1052,56,1102,1559,-761,184,-1102,253,1078,1113,-373,242,-1154,239,973,834,-459,264,-1221,89,698,517,-304,313,-1311,-127,400,42,-150,342,-1516,-303,43,-361,117,404,-1826,-443,-573,-879,607,549,-2272,-399,-1337,-1745,1661,596,-2696,-94,-2227,-2443,2971,469,-2768,455,-3327,-2495,4160,239,-2452,1091,-3711,-1946,4789,127,-1750,1427,-3326,-844,5008,120,-1158,1438,-2645,72,4697,200,-572,1244,-1891,748,4000,253,-138,1081,-1338,948,3130,297,211,905,-862,996,2225,302,426,788,-547,857,1426,292,603,680,-305,577,691,246,714,613,-170,214,12,148,757,603,-65,-75,-578,-21,706,599,102,-331,-1261,-203,631,611,230,-484,-1729,-399,505,570,506,-551,-2041,-590,391,511,717,-616,-2159,-727,257,443,878,-624,-2312,-850,94,411,964,-548,-2394
-714,305,670,160,-7,-81,-805,436,518,215,27,-307,-791,582,418,443,-136,-516,-670,776,349,815,-640,-932,-469,880,332,1130,-1238,-1318,-207,902,443,1358,-1794,-1681,-14,922,540,1510,-2158,-1862,224,922,703,1394,-2169,-1919,416,861,809,1177,-1718,-1757,554,773,897,893,-1203,-1474,636,635,945,728,-677,-953,618,478,1058,573,-311,-457,693,262,1295,286,18,16,789,195,1505,-16,474,533,970,356,1699,-516,1315,1097,1088,873,1813,-728,2503,1246,821,1579,1667,-1526,3856,414,363,1950,1169,-2670,4267,-469,31,1859,540,-3166,4112,-1359,-151,1572,16,-3133,3434,-1808,-162,1136,-347,-2701,2656,-1953,-122,722,-565,-2053,1962,-1838,-85,410,-696,-1542,1293,-1516,-66,153,-795,-1007,708,-963,-91,-12,-878,-597,316,-432,-202,-106,-920,-219,-62,132,-359,-73,-911,15,-371,603,-551,-77,-796,339,-609,883,-720,-70,-693,511,-672,1004,-835,-66,-577,634,-736,1018
-807,524,340,667,-493,-277,-750,646,276,918,-821,-494,-626,757,286,1200,-1229,-751,-503,845,286,1545,-1472,-914,-380,913,211,1856,-1390,-1012,-255,955,188,1903,-1487,-935,-62,1057,223,1929,-1529,-699,50,1167,330,1693,-1326,-548,147,1178,475,1419,-986,-518,178,1128,618,1170,-571,-348,170,1050,830,866,-253,-167,135,980,1034,377,100,181,181,1044,1241,-138,499,350,463,1152,1477,-776,1150,484,819,1561,1578,-1172,1926,666,1032,2263,1326,-1762,3319,199,1066,2816,848,-2803,4314,-880,996,2859,406,-3397,4804,-1937,883,2497,-68,-3494,4663,-2815,710,1953,-563,-3100,4141,-3131,556,1326,-913,-2161,3080,-3107,460,837,-1008,-1438,2078,-2783,371,410,-1032,-758,1244,-2099,303,113,-1031,-314,716,-1462,222,-138,-1047,-14,376,-776,122,-278,-968,13,178,-153,-57,-306,-924,28,93,388,-263,-284,-943,59,25,644,-437,-308,-889,86,-48,719,-537,-355,-827,102,-10,657
-662,607,407,332,-530,-212,-680,671,312,560,-786,-318,-627,796,208,893,-1064,-509,-505,941,186,1250,-1311,-753,-320,1118,236,1533,-1402,-1063,-184,1212,349,1732,-1404,-1288,-68,1221,386,1664,-1304,-1417,15,1144,460,1542,-1272,-1322,97,1045,621,1274,-1133,-949,150,907,844,977,-828,-541,126,763,1035,752,-509,-240,81,671,1205,345,-59,56,95,709,1340,-198,401,424,223,792,1489,-1052,1108,898,422,1114,1525,-1529,1640,1257,513,1610,1512,-2002,2653,1147,464,2110,1499,-2456,3437,453,341,2304,1035,-2652,4363,-720,238,2165,532,-2483,4518,-2058,216,1696,-95,-2097,4128,-3027,238,1186,-452,-1571,3257,-3308,282,683,-646,-1117,2279,-2971,321,311,-764,-698,1523,-2313,342,26,-844,-410,1030,-1693,323,-194,-890,-182,632,-986,241,-327,-920,-58,391,-414,98,-415,-933,-5,244,66,-36,-473,-916,-7,185,320,-149,-516,-888,-22,133,462,-212,-541,-860,-29,99,483
-285,803,-100,1386,-1995,-286,-115,798,-98,1446,-2001,-7,26,921,-23,1592,-1890,191,93,1039,61,1534,-1586,192,129,1130,145,1351,-1063,133,192,1264,232,1093,-614,164,266,1321,454,617,-126,110,361,1380,655,40,277,163,534,1566,834,-679,812,177,768,1797,918,-1322,1472,-19,1010,2329,975,-2210,2467,-290,918,3044,871,-3041,3450,-1178,632,3428,55,-4059,4263,-2714,447,2929,-635,-4128,3724,-3799,376,2129,-1095,-3509,2632,-4257,371,1338,-1163,-2557,1484,-3956,382,797,-1069,-1793,733,-3364,409,314,-1001,-1108,257,-2679,456,-49,-932,-596,0,-2012,493,-354,-862,-205,-107,-1208,479,-543,-831,-42,-83,-438,296,-683,-764,23,-48,328,5,-705,-704,84,10,846,-294,-685,-617,134,112,995,-446,-697,-544,142,203,868,-509,-727,-527,166,236,667,-516,-758,-480,191,180,537,-512,-776,-444,232,105,435,-506,-799,-402,242,0,392,-508,-792,-385,224,-43,391
