t0_Ax,t0_Ay,t0_Az,t0_gyro_x,t0_gyro_y,t0_gyro_z,t1_Ax,t1_Ay,t1_Az,t1_gyro_x,t1_gyro_y,t1_gyro_z,t2_Ax,t2_Ay,t2_Az,t2_gyro_x,t2_gyro_y,t2_gyro_z,t3_Ax,t3_Ay,t3_Az,t3_gyro_x,t3_gyro_y,t3_gyro_z,t4_Ax,t4_Ay,t4_Az,t4_gyro_x,t4_gyro_y,t4_gyro_z,t5_Ax,t5_Ay,t5_Az,t5_gyro_x,t5_gyro_y,t5_gyro_z,t6_Ax,t6_Ay,t6_Az,t6_gyro_x,t6_gyro_y,t6_gyro_z,t7_Ax,t7_Ay,t7_Az,t7_gyro_x,t7_gyro_y,t7_gyro_z,t8_Ax,t8_Ay,t8_Az,t8_gyro_x,t8_gyro_y,t8_gyro_z,t9_Ax,t9_Ay,t9_Az,t9_gyro_x,t9_gyro_y,t9_gyro_z,t10_Ax,t10_Ay,t10_Az,t10_gyro_x,t10_gyro_y,t10_gyro_z,t11_Ax,t11_Ay,t11_Az,t11_gyro_x,t11_gyro_y,t11_gyro_z,t12_Ax,t12_Ay,t12_Az,t12_gyro_x,t12_gyro_y,t12_gyro_z,t13_Ax,t13_Ay,t13_Az,t13_gyro_x,t13_gyro_y,t13_gyro_z,t14_Ax,t14_Ay,t14_Az,t14_gyro_x,t14_gyro_y,t14_gyro_z,t15_Ax,t15_Ay,t15_Az,t15_gyro_x,t15_gyro_y,t15_gyro_z,t16_Ax,t16_Ay,t16_Az,t16_gyro_x,t16_gyro_y,t16_gyro_z,t17_Ax,t17_Ay,t17_Az,t17_gyro_x,t17_gyro_y,t17_gyro_z,t18_Ax,t18_Ay,t18_Az,t18_gyro_x,t18_gyro_y,t18_gyro_z,t19_Ax,t19_Ay,t19_Az,t19_gyro_x,t19_gyro_y,t19_gyro_z,t20_Ax,t20_Ay,t20_Az,t20_gyro_x,t20_gyro_y,t20_gyro_z,t21_Ax,t21_Ay,t21_Az,t21_gyro_x,t21_gyro_y,t21_gyro_z,t22_Ax,t22_Ay,t22_Az,t22_gyro_x,t22_gyro_y,t22_gyro_z,t23_Ax,t23_Ay,t23_Az,t23_gyro_x,t23_gyro_y,t23_gyro_z,t24_Ax,t24_Ay,t24_Az,t24_gyro_x,t24_gyro_y,t24_gyro_z,t25_Ax,t25_Ay,t25_Az,t25_gyro_x,t25_gyro_y,t25_gyro_z,t26_Ax,t26_Ay,t26_Az,t26_gyro_x,t26_gyro_y,t26_gyro_z,t27_Ax,t27_Ay,t27_Az,t27_gyro_x,t27_gyro_y,t27_gyro_z,t28_Ax,t28_Ay,t28_Az,t28_gyro_x,t28_gyro_y,t28_gyro_z,t29_Ax,t29_Ay,t29_Az,t29_gyro_x,t29_gyro_y,t29_gyro_z
717,-218,221,152,-338,-231,734,-245,145,135,-439,59,798,-309,51,66,-522,231,877,-366,-47,90,-462,347,926,-398,-92,-2,-398,372,981,-436,-145,-53,-310,354,1016,-476,-175,-159,-179,296,1056,-527,-216,-242,-164,236,1137,-609,-269,-380,-258,173,1272,-752,-345,-509,-418,30,1430,-841,-390,-710,-686,-259,1756,-888,-443,-992,-978,-727,1963,-951,-491,-1638,-1569,-1665,1751,-1073,-314,-2708,-1825,-3092,1119,-1339,-164,-3414,-1315,-4138,-157,-1540,-149,-3944,-222,-4692,-1850,-1226,292,-4166,1491,-4041,-2893,-679,879,-3262,1260,-1816,-2917,-774,954,-1483,937,1369,-2857,-1497,1198,452,-178,3117,-2764,-2566,1149,2212,-2446,4242,-2549,-2860,1168,2771,-3754,4833,-2612,-3168,1048,3288,-4599,4544,-2356,-3075,546,3153,-4986,3292,-2049,-2739,107,1741,-4295,1437,-1836,-2455,-152,518,-3016,30,-1714,-2192,-162,-598,-1334,-1065,-1509,-1876,-126,-1155,-212,-1600,-1155,-1623,-104,-1496,836,-1768,-753,-1376,-125,-1559,1214,-1760,-419,-1203,-148,-1510,1501,-1656
876,-436,47,-73,-139,19,820,-479,0,-124,-188,125,804,-549,-60,-231,-290,301,771,-599,-116,-309,-353,485,796,-658,-138,-420,-360,671,865,-742,-144,-433,-384,795,982,-864,-199,-473,-633,819,1137,-1005,-285,-413,-773,578,1281,-1116,-384,-574,-986,126,1306,-1172,-539,-1026,-1199,-528,1288,-1236,-497,-1859,-1551,-1145,1163,-1199,-286,-3049,-2122,-1919,903,-1171,-78,-4023,-2164,-2850,120,-1266,-15,-4650,-1229,-4021,-1074,-1127,-14,-4965,-179,-4608,-2423,-679,400,-4947,318,-3381,-2843,-456,527,-3602,248,-617,-2704,-639,627,-2377,-91,1811,-2451,-1672,825,-480,-717,3499,-2409,-2742,815,997,-2530,4392,-2226,-3190,465,2108,-3903,4811,-2089,-3068,307,3037,-4630,3877,-1919,-2698,-13,2987,-4904,2484,-1874,-2404,-186,1912,-4463,1283,-1725,-2226,-520,1014,-3233,-174,-1594,-1971,-680,285,-1573,-1283,-1287,-1735,-624,-727,-151,-1721,-902,-1557,-436,-1326,833,-1763,-524,-1401,-338,-1611,1194,-1689,-189,-1176,-379,-1491,1453,-1493
1011,-191,-350,-291,13,-21,996,-177,-319,-331,-29,-40,965,-128,-303,-405,-108,-70,928,-99,-274,-544,-119,-15,923,-123,-287,-561,-20,36,936,-96,-284,-546,31,40,960,-113,-306,-345,8,115,952,-107,-324,-181,-4,170,941,-107,-357,5,-44,280,1012,-162,-505,166,-117,490,1358,-354,-916,16,-453,417,1875,-604,-1428,-794,-686,-183,1987,-853,-1403,-1954,-418,-1058,1704,-1132,-971,-3117,141,-2184,1115,-1266,-677,-3649,834,-3124,195,-1232,-515,-3881,1459,-3494,-747,-1234,86,-3613,2249,-2946,-1415,-1046,922,-2267,1701,-1525,-1749,-1085,1194,-1,-443,95,-1802,-1654,878,2211,-2525,1129,-1526,-2623,114,3732,-3645,1516,-1517,-3121,-680,4538,-4424,1261,-1612,-3247,-1475,5041,-4654,306,-1570,-2867,-1902,4398,-3244,-340,-1467,-2390,-1890,2947,-1859,-685,-1244,-1892,-1635,1622,-616,-670,-943,-1469,-1159,223,177,-482,-667,-1233,-831,-582,485,-351,-434,-1061,-655,-930,682,-270,-295,-894,-611,-957,921,-304
465,-898,-172,-32,-80,-5,455,-892,-169,-57,-86,-2,452,-883,-183,-84,-146,5,454,-888,-186,-74,-89,-13,452,-898,-181,13,-65,-14,470,-901,-189,53,-35,-51,487,-908,-188,76,-5,-113,521,-910,-198,138,27,-170,525,-862,-195,150,71,-211,578,-883,-221,142,36,-181,734,-1043,-345,107,-34,-117,1087,-1568,-615,-467,-250,-422,1370,-1945,-906,-1341,-451,-1371,1209,-1891,-940,-2307,67,-2405,894,-1902,-765,-3086,966,-3101,258,-1672,-573,-3238,2144,-3709,-288,-1273,-548,-3477,2916,-3798,-921,-929,-226,-3369,3596,-2885,-1600,-760,461,-2571,3683,-1377,-1993,-642,1058,-1102,1772,193,-2077,-771,1041,430,-744,1665,-2446,-1622,389,2561,-2887,3290,-2667,-2254,-562,3415,-4022,3702,-2589,-2344,-1195,2923,-4751,2917,-2298,-2143,-1639,2934,-4727,1863,-2005,-1947,-1960,2413,-3817,1072,-1671,-1708,-2126,1621,-2228,364,-1352,-1434,-1925,898,-644,-69,-1106,-1139,-1409,392,936,-533,-918,-874,-925,154,1566,-754
496,-323,757,-72,4,-10,494,-332,751,-101,26,12,487,-348,760,-108,10,55,503,-373,753,-102,-22,97,508,-394,739,-104,-16,115,504,-403,730,-109,1,122,495,-423,721,-148,9,172,554,-579,788,-190,-22,353,769,-945,904,-358,-273,431,1089,-1423,987,-1137,-1089,26,1206,-1681,937,-2274,-1801,-946,1081,-1709,936,-3091,-1951,-2157,811,-1537,865,-3229,-1779,-3173,346,-1189,614,-3392,-1447,-4045,-205,-851,504,-3551,-432,-4567,-942,-420,767,-3210,869,-4688,-1439,229,1112,-2011,702,-2968,-1498,331,1029,-507,148,-412,-1498,133,1062,747,-731,1603,-1720,-653,1044,2517,-2283,3368,-1863,-1611,800,3652,-3680,4191,-2087,-2182,354,3313,-4496,3494,-1822,-2532,-318,3852,-4044,1769,-1787,-2382,-673,3096,-3186,738,-1627,-2195,-933,2066,-2051,-86,-1510,-1881,-963,1132,-901,-526,-1218,-1594,-767,168,125,-726,-981,-1389,-519,-339,793,-854,-684,-1202,-388,-584,1031,-900,-475,-1081,-331,-603,1216,-997
795,-512,389,83,157,-60,784,-493,414,32,180,-91,763,-460,448,-71,128,-75,763,-444,477,-112,49,-32,758,-440,479,-17,70,-14,755,-450,464,46,69,13,761,-485,442,82,92,26,776,-560,414,62,93,22,818,-711,348,113,286,-36,874,-928,323,-28,436,-161,979,-1199,374,-413,676,-572,1050,-1408,597,-886,813,-1209,875,-1490,956,-1421,937,-2300,541,-1349,1253,-1454,711,-3375,301,-1057,1246,-1330,109,-4303,-41,-811,1103,-1072,8,-4880,-614,-384,965,-1017,-71,-5236,-1179,-22,976,-750,-69,-4462,-1400,216,920,2,303,-2220,-1391,165,968,384,205,-3,-1404,-113,1167,986,-850,1883,-1438,-900,1087,2342,-2539,3482,-1469,-1710,751,3315,-3809,4230,-1393,-2199,21,3440,-4617,3668,-1174,-2262,-502,3070,-4319,2560,-1161,-2226,-829,2699,-3470,1058,-992,-2048,-989,2303,-2429,44,-864,-1795,-906,1399,-1288,-658,-646,-1592,-781,764,-497,-951,-418,-1410,-605,303,185,-1088
822,-476,-103,-479,57,-556,791,-395,-74,-391,61,-448,811,-360,-83,-272,-15,-263,869,-362,-129,-194,-41,-194,900,-360,-144,-103,-8,-136,919,-356,-169,-77,-29,-139,912,-347,-180,-65,-48,-109,896,-334,-204,-8,-39,-92,881,-326,-209,1,-32,-27,879,-323,-216,27,-13,30,876,-316,-204,68,33,93,880,-307,-188,128,67,173,882,-299,-154,203,121,306,881,-289,-121,355,161,609,946,-394,-85,450,138,924,1030,-539,-22,490,98,1097,1126,-776,56,413,-320,1110,1193,-992,124,326,-741,843,1164,-1264,222,221,-1515,502,963,-1355,214,176,-2114,-171,697,-1338,73,67,-2612,-748,406,-1307,-48,-206,-2996,-1387,159,-1249,-261,15,-2645,-2121,-68,-1086,-418,164,-1585,-2455,-235,-944,-550,170,-617,-2735,-378,-839,-795,115,314,-2923,-466,-830,-973,-745,1054,-3063,-701,-738,-896,-1677,1986,-2979,-855,-677,-499,-2581,2636,-2283,-798,-732,46,-3231,2968,-1503
715,-371,599,-84,-47,-40,721,-372,596,-94,-47,-47,726,-370,592,-95,-58,-50,724,-360,576,-142,-129,-52,742,-368,565,-186,-174,-41,779,-387,559,-227,-230,-6,827,-423,530,-244,-297,25,868,-454,486,-283,-350,-31,847,-442,456,-308,-361,-89,787,-392,420,-281,-327,-85,751,-367,391,-262,-318,66,779,-401,369,-183,-266,249,832,-462,316,-326,-298,495,1030,-809,224,-341,-391,682,1319,-1172,111,-655,-501,476,1608,-1535,75,-1412,-797,-409,1562,-1744,172,-2403,-1005,-1908,1186,-1706,203,-2934,-737,-3353,522,-1415,8,-3386,-194,-4383,-167,-1142,-91,-3684,730,-4716,-1018,-779,329,-3466,1783,-4007,-1667,-412,1042,-2228,1949,-2034,-1859,-297,1252,-291,636,396,-1982,-757,1053,1715,-1555,2499,-2316,-1685,710,3330,-3049,3794,-2450,-2462,158,3764,-4198,4451,-2432,-2786,-266,3725,-4807,3860,-2355,-2820,-798,3608,-4551,2497,-2003,-2591,-1150,2781,-3285,1235,-1711,-2118,-1032,1446,-1495,-80
620,736,136,269,-263,284,682,712,51,224,-307,226,717,700,3,170,-236,126,725,706,-20,146,-175,58,720,711,-37,124,-138,15,710,725,-43,113,-146,7,712,730,-59,117,-105,18,714,734,-63,88,-88,11,714,734,-62,66,-55,-10,720,725,-64,57,-31,-28,735,702,-96,42,18,-73,725,701,-92,6,146,-202,675,735,-47,-20,160,-282,632,778,-24,19,151,-224,628,797,-29,44,77,-140,657,802,-60,39,61,-98,689,797,-95,-5,197,-144,636,755,-134,-193,504,-318,248,681,36,-511,1255,-689,-764,782,1126,-436,1327,-260,-1729,-168,1697,1748,-1016,2156,-2391,-1841,1040,3346,-2888,3588,-2218,-2636,120,3318,-3848,4066,-1894,-2945,-778,2792,-4259,3542,-1485,-2705,-1233,1775,-3343,2062,-1228,-2302,-1215,1145,-2151,906,-965,-1770,-1028,613,-759,50,-753,-1392,-704,20,-30,-194,-520,-1203,-545,-172,245,-291,-368,-1050,-456,-112,554,-419
831,-559,117,-61,37,-97,829,-545,114,-46,16,-70,840,-550,109,-31,13,-44,843,-549,109,-8,11,-30,858,-550,93,-18,10,-33,869,-549,86,-52,18,-56,866,-536,72,-91,0,-60,865,-538,35,-177,-19,-45,858,-570,-15,-272,-1,7,890,-662,-71,-286,3,101,937,-820,-98,-317,-66,111,1022,-948,-83,-443,-242,-38,1107,-954,-82,-707,-535,-362,1168,-896,-51,-1028,-717,-826,1148,-715,-19,-1255,-913,-1352,1113,-537,-39,-1520,-1142,-1785,989,-318,-76,-1695,-1296,-2251,795,-93,-163,-1934,-1392,-2740,453,185,-211,-2153,-1151,-3180,9,439,-242,-2014,-364,-3310,-474,747,-229,-1936,637,-2953,-929,903,-62,-1798,1393,-2004,-1238,922,79,-1643,1371,-891,-1429,710,341,-1255,1324,767,-1421,287,562,-503,606,2538,-1360,-507,573,634,-701,3912,-1264,-1180,343,1469,-2152,4573,-1031,-1532,-152,1608,-3220,4239,-877,-1747,-466,1757,-3444,3501,-792,-1832,-805,2130,-3287,2580
492,826,-18,-99,-264,-291,535,847,-77,-76,-219,-265,559,854,-98,-96,-109,-296,534,861,-89,-141,-19,-397,484,870,-71,-207,46,-478,468,900,-86,-240,131,-587,446,917,-101,-445,291,-758,321,939,-22,-622,634,-955,97,960,97,-891,911,-1162,-202,946,233,-1166,1276,-1238,-762,849,506,-1451,1470,-1076,-1372,707,861,-1362,973,-244,-1818,192,1241,-84,1,1972,-2034,-850,1104,1879,-1543,3478,-2080,-2109,717,3334,-3141,4447,-1768,-2432,339,3038,-4041,4572,-1612,-2720,44,2769,-4616,3617,-1335,-2601,-424,2739,-4222,2343,-1177,-2455,-685,1889,-3474,845,-959,-2248,-887,1427,-2046,-149,-771,-2001,-840,672,-612,-998,-519,-1690,-710,146,356,-1424,-303,-1452,-563,-259,954,-1534,-79,-1247,-425,-543,1153,-1422,129,-1090,-361,-644,1242,-1362,278,-908,-257,-535,1443,-1243,409,-762,-194,-295,1322,-1054,557,-650,-157,-188,1110,-829,648,-597,-110,-120,926,-625,740,-574,-67,-58,713,-485
1004,-174,116,-114,-40,-146,976,-142,113,-131,-46,-156,948,-118,106,-123,-63,-99,963,-131,115,-111,-25,-43,1030,-164,108,-81,-44,-12,1139,-190,46,-115,-131,-80,1345,-249,-79,-260,-324,-289,1603,-302,-189,-578,-459,-719,1699,-319,-238,-1005,-483,-1331,1455,-271,-199,-1827,-425,-2174,906,-178,-14,-2284,186,-2798,147,-15,347,-2544,736,-2885,-481,90,917,-2322,668,-2114,-976,-149,1411,-491,-936,-279,-1259,-828,1051,1912,-2795,1479,-1197,-1573,215,3438,-3991,2488,-1095,-1846,-433,3788,-4188,2385,-850,-1982,-1064,3198,-3923,1979,-653,-1876,-1464,2568,-2940,1194,-524,-1667,-1551,1815,-1505,349,-393,-1427,-1394,1081,-396,-148,-220,-1223,-1160,508,294,-421,-87,-1038,-889,59,630,-567,51,-917,-749,-56,675,-567,178,-821,-638,-74,784,-624,280,-762,-581,57,823,-613,380,-715,-537,174,992,-641,449,-680,-465,210,1023,-570,565,-677,-417,160,1051,-581,623,-663,-345,175,1084,-564
1011,-265,86,-85,59,-44,1004,-263,95,-164,4,-81,995,-252,102,-177,-50,-77,964,-235,97,-217,-64,-81,963,-234,84,-218,-136,-14,973,-237,50,-197,-105,12,1008,-260,16,-209,-116,-2,1047,-271,7,-90,-104,-20,1130,-276,-65,-80,-175,-104,1310,-296,-207,-224,-296,-354,1559,-351,-344,-472,-322,-759,1746,-417,-514,-1140,-501,-1602,1592,-499,-507,-1888,-312,-2479,1019,-508,-297,-2401,419,-2917,266,-455,145,-2602,1100,-2819,-560,-273,864,-2247,1080,-2178,-1071,-311,1348,-871,-23,-678,-1391,-825,1243,1653,-1568,1485,-1427,-1662,694,3293,-2679,3164,-1005,-2390,66,4049,-3439,3649,-600,-2748,-547,3960,-3559,3116,-336,-2628,-1075,3351,-2808,2099,-277,-2433,-1293,2249,-1961,1226,-156,-2143,-1327,1363,-1058,494,-135,-1756,-1139,652,-98,-111,-46,-1482,-957,-61,419,-443,25,-1271,-701,-548,821,-675,132,-1080,-538,-666,938,-723,238,-917,-402,-708,955,-708,348,-811,-327,-567,861,-621,458,-723,-315,-409,848,-550
995,-245,-81,-4,124,-165,1021,-266,-82,61,4,-293,1035,-247,-115,4,-52,-372,1041,-215,-105,-33,-95,-369,1025,-177,-104,-83,-130,-349,1020,-135,-95,-117,-152,-295,999,-100,-94,-102,-113,-254,998,-82,-94,-68,-150,-190,998,-67,-120,2,-123,-77,1015,-81,-140,36,-201,-2,1107,-114,-221,2,-353,-21,1290,-147,-318,-83,-554,-204,1486,-164,-454,-276,-840,-614,1643,-157,-591,-558,-1086,-1323,1678,-197,-558,-1150,-1270,-2312,1367,-273,-306,-1541,-1107,-3274,693,-405,-115,-2145,-1102,-4315,-188,-401,-67,-2674,-516,-4538,-1232,-202,240,-3042,350,-3455,-1805,-110,563,-2358,137,-1434,-1960,-213,679,-936,-417,1204,-1850,-587,674,750,-1215,3018,-1553,-1363,499,2520,-2096,4186,-1369,-1713,279,2868,-3285,4719,-1204,-1874,123,2753,-4116,4345,-1215,-1996,-126,2909,-4393,3374,-1291,-1969,-508,2786,-4081,2216,-1324,-1956,-806,2096,-3326,1203,-1257,-1855,-894,1349,-2295,261,-1092,-1637,-820,607,-1081,-535
1128,-190,-210,51,-488,-207,1097,-145,-253,42,-587,-328,1025,-103,-292,36,-638,-400,1000,-81,-338,-11,-645,-485,1013,-71,-382,0,-608,-571,1069,-47,-497,-120,-869,-824,1060,42,-683,-294,-1131,-1094,1009,124,-795,-569,-1200,-1315,986,183,-813,-918,-1465,-1635,976,224,-769,-1365,-1679,-2123,760,171,-595,-1822,-1452,-2773,268,59,-416,-2195,-1146,-3427,-583,-78,-377,-2695,-545,-3592,-1527,-205,-327,-3309,-201,-2874,-2375,-557,-115,-3446,-144,-650,-2584,-1220,-102,-2882,-386,1840,-2707,-2325,-20,-1975,-1436,3515,-2762,-3381,279,-346,-1999,4402,-2949,-3819,331,255,-3586,4973,-2526,-4107,464,778,-4493,4983,-1911,-4588,7,1349,-4935,3862,-1654,-4195,88,718,-4406,1243,-1683,-3739,54,602,-4881,-817,-1430,-2969,-302,487,-3964,-1992,-1187,-2325,-303,1,-2773,-1886,-878,-1621,-420,-41,-1704,-1887,-571,-1145,-410,-158,-610,-1490,-161,-896,-287,-428,38,-908,149,-859,-173,-668,384,-541,429,-826,-105,-712,720,-368
961,-173,64,-130,27,-59,965,-163,46,-58,32,-48,973,-168,47,-14,33,-22,977,-168,20,-16,17,13,991,-164,-6,-67,104,131,1013,-219,-17,-338,84,204,1131,-306,-24,-214,14,244,1341,-425,-89,-324,-222,52,1702,-565,-278,-430,-576,-370,2027,-691,-429,-843,-966,-1202,2098,-869,-338,-1556,-1140,-2562,1719,-998,-73,-2078,-953,-3778,815,-1057,-57,-2627,-332,-4624,-285,-907,-114,-3126,769,-4847,-1538,-554,332,-3447,1321,-3833,-2209,-483,612,-2389,241,-1475,-2482,-890,587,-689,-1434,1189,-2843,-1886,359,1408,-3141,3009,-3414,-3176,-70,3140,-4250,3971,-3459,-3305,-415,3987,-4881,3825,-3319,-3263,-632,4064,-5216,3340,-2958,-3043,-989,3146,-5423,2287,-2325,-2640,-1166,2769,-4096,1028,-2028,-2278,-923,2177,-1616,-286,-1828,-1932,-676,1524,-340,-650,-1534,-1641,-597,859,201,-687,-1254,-1426,-625,502,653,-736,-995,-1317,-528,9,1157,-856,-727,-1262,-446,-337,1472,-1152,-531,-1220,-341,-256,1923,-1440
770,-745,-108,-176,-87,-159,735,-695,-111,-185,-102,-179,722,-675,-98,-205,-74,-162,715,-659,-89,-175,-49,-144,763,-693,-99,-156,-48,-120,827,-735,-137,-108,-42,-174,944,-810,-231,-146,-127,-324,1125,-884,-340,-250,-137,-625,1254,-903,-399,-368,-182,-973,1437,-910,-368,-599,-330,-1527,1471,-856,-285,-751,-553,-2246,1314,-728,-103,-1118,-1189,-3303,1071,-656,-33,-1479,-1670,-4209,510,-659,-88,-1920,-1382,-4852,-220,-626,-224,-2231,-346,-4811,-1168,-403,-327,-2734,717,-4200,-2055,-108,-168,-3179,1007,-2972,-2528,-129,-85,-2803,219,-579,-2382,-513,-225,-2264,-716,1736,-1969,-1239,-404,-1547,-1493,3456,-1622,-1987,-471,-796,-2428,4435,-1229,-2183,-421,-226,-2257,4712,-924,-2276,-358,226,-2765,4673,-708,-2340,-272,1128,-2356,4979,-556,-2829,-121,1637,-2851,4925,-533,-3206,5,1178,-3459,3754,-388,-3323,-428,1115,-3984,2075,-509,-2843,-651,765,-3593,432,-598,-2181,-672,166,-3333,-628,-478,-1683,-617,-62,-2626,-851,-241,-1292,-484,-219,-1587,-764
927,-390,227,-106,65,-216,947,-377,213,-125,2,-230,966,-369,187,-155,-33,-239,1001,-374,148,-273,-66,-344,998,-341,146,-392,3,-464,1022,-319,180,-436,-83,-462,1096,-307,184,-426,-260,-464,1248,-323,140,-347,-466,-495,1417,-318,46,-375,-858,-738,1625,-316,-84,-607,-1306,-1234,1711,-305,-194,-1155,-1794,-2087,1586,-361,-158,-1799,-1631,-2983,989,-476,-81,-2406,-772,-3892,171,-510,-105,-3032,255,-4507,-928,-415,-6,-3637,1015,-4191,-1738,-362,418,-3347,861,-2384,-2087,-596,537,-2042,-378,34,-2144,-1101,494,-244,-1839,2201,-2396,-2290,169,2096,-3497,3721,-1989,-3198,-185,3370,-4383,4414,-1442,-3471,-163,3679,-4394,3689,-885,-3657,-788,4179,-4388,2503,-658,-3327,-996,3714,-3001,1033,-550,-3044,-1015,2688,-2509,22,-523,-2675,-1002,2037,-2148,-839,-444,-2068,-1013,1447,-1558,-1053,-293,-1664,-891,619,-1206,-1067,-56,-1355,-712,34,-534,-934,126,-1161,-502,-235,69,-849,306,-1011,-275,-397,485,-818
990,-265,-62,-102,-333,-40,986,-264,-85,-99,-311,-60,993,-271,-106,-70,-282,-72,1030,-297,-151,-65,-305,-107,1119,-353,-223,-83,-401,-169,1173,-351,-302,-151,-610,-315,1203,-327,-408,-351,-802,-516,1273,-289,-539,-711,-1048,-865,1324,-242,-602,-1158,-1246,-1332,1262,-181,-544,-1717,-1418,-2022,1019,-109,-387,-2040,-1161,-2636,529,-109,-303,-2486,-789,-3415,-132,-58,-277,-2920,-151,-3908,-1120,22,-212,-3548,709,-3763,-2157,48,288,-3715,582,-2307,-2665,-423,485,-2460,-625,688,-2744,-1316,515,-553,-1887,2709,-2913,-2952,252,1820,-3521,4010,-2447,-3238,-111,2022,-4401,4442,-1867,-3077,-225,2419,-4700,3554,-1354,-2988,-628,3048,-4199,2306,-983,-2894,-820,2748,-3265,942,-769,-2726,-785,2255,-2286,-169,-656,-2505,-777,1784,-1642,-885,-535,-2157,-756,1221,-1210,-1334,-387,-1808,-732,698,-981,-1588,-224,-1470,-670,282,-613,-1525,-72,-1216,-583,-57,-261,-1292,97,-1028,-451,-362,86,-982,250,-925,-332,-453,317,-731
1011,-337,78,-75,-130,-3,1026,-342,56,-92,-169,-54,999,-317,38,-82,-191,-76,972,-299,22,-110,-215,-91,950,-279,17,-103,-182,-71,938,-267,16,-91,-133,-49,955,-278,10,-77,-117,-15,978,-289,-14,-55,-91,-18,1018,-325,-53,-58,-143,-20,1102,-372,-117,-125,-142,-116,1159,-381,-138,-174,-180,-186,1285,-395,-209,-431,-584,-433,1357,-359,-290,-724,-897,-782,1349,-274,-328,-1016,-1044,-1226,1298,-192,-339,-1370,-1335,-1717,1150,-75,-331,-1707,-1358,-2272,884,38,-283,-1889,-1055,-2661,444,163,-204,-2220,-690,-3036,-3,255,-108,-2541,-205,-3115,-498,318,42,-2761,423,-2723,-1013,313,365,-2795,711,-1893,-1389,212,625,-2165,369,-664,-1660,-105,788,-1192,-340,1154,-1922,-811,953,518,-1381,2980,-2317,-2290,709,2740,-3032,4164,-2178,-3269,255,3608,-4108,4752,-1520,-3486,-88,3294,-4407,3956,-1085,-3411,-492,3143,-4135,2452,-801,-3118,-876,2703,-3116,865,-674,-2747,-1001,2193,-1939,-339
923,-403,142,-18,20,-9,926,-403,138,0,11,-12,919,-395,121,6,0,-11,919,-407,104,-3,-13,9,910,-424,79,-35,-45,43,931,-470,31,-87,-108,107,979,-547,-32,-199,-243,168,1092,-648,-134,-364,-439,168,1350,-813,-233,-767,-669,-83,1577,-842,-238,-1169,-678,-673,1708,-792,-159,-1458,-977,-1401,1723,-743,-160,-1840,-1541,-2362,1471,-717,-160,-2296,-1558,-3345,963,-757,-182,-2555,-879,-3960,79,-743,-333,-3084,-25,-4438,-1098,-628,-248,-3502,1429,-4009,-2105,-358,427,-3390,1408,-2643,-2314,-476,572,-1670,-60,294,-2196,-965,471,41,-1353,2474,-2160,-1867,250,1872,-3047,3876,-2030,-2541,-43,2890,-4117,4506,-1735,-2874,-343,3475,-4806,3774,-1419,-2773,-756,3615,-4867,2700,-1141,-2613,-1078,3022,-3775,1308,-936,-2437,-1180,2409,-2084,82,-848,-2180,-1001,1734,-549,-922,-682,-1858,-862,1178,132,-1182,-456,-1573,-716,468,482,-1158,-280,-1358,-600,-11,559,-1026,-129,-1213,-545,-288,601,-935
970,-453,53,-121,37,-163,946,-418,68,-137,8,-180,921,-394,88,-147,-30,-174,907,-372,93,-128,-83,-146,911,-364,78,-94,-99,-122,929,-364,55,-69,-96,-102,964,-375,26,-58,-89,-114,987,-371,0,-58,-69,-147,1026,-382,-21,-87,-92,-184,1077,-383,-49,-127,-182,-251,1162,-398,-97,-213,-353,-332,1280,-413,-196,-451,-632,-510,1404,-422,-329,-769,-918,-837,1449,-376,-418,-1146,-911,-1342,1385,-352,-392,-1551,-841,-1935,1181,-287,-259,-2054,-827,-2573,837,-261,-205,-2563,-447,-3169,268,-184,-106,-2850,417,-3612,-451,-29,112,-3047,1267,-3743,-1147,178,522,-2937,1364,-3016,-1710,191,727,-2137,813,-1234,-1973,-16,817,-1333,-142,409,-2069,-728,819,472,-1791,2584,-2321,-1877,494,2500,-3357,3845,-2351,-2700,101,3678,-4374,4521,-2156,-2755,-181,3652,-4895,4086,-1803,-2684,-603,3676,-4891,2964,-1491,-2496,-767,3226,-3977,1865,-1301,-2427,-942,2420,-3118,876,-1079,-2185,-918,1666,-1643,35
912,-356,196,-136,106,-104,920,-349,185,-107,38,-102,924,-348,188,-80,31,-91,931,-357,181,-49,27,-73,932,-364,181,-52,49,-79,922,-368,181,-12,70,-65,927,-374,178,-30,52,-77,928,-380,171,-32,40,-65,936,-383,157,-59,-2,-43,947,-386,163,-75,0,-26,947,-364,177,-71,-38,-21,969,-376,197,-87,-41,-16,997,-389,209,-29,-86,-7,1087,-426,165,-50,-240,-43,1305,-521,65,-44,-412,-116,1693,-667,-100,-347,-728,-633,1965,-799,-227,-986,-1064,-1626,1844,-917,-109,-1685,-1031,-2722,1323,-954,33,-2336,-780,-3789,575,-823,-12,-2849,-217,-4391,-396,-601,27,-3267,847,-4210,-1292,-419,523,-3181,1487,-2954,-1870,-480,924,-1917,429,-539,-2153,-979,1031,-74,-1019,1867,-2429,-2235,808,2329,-2915,3531,-2141,-3076,346,3599,-4025,4394,-1440,-3416,78,3778,-3963,4012,-833,-3552,-470,3849,-3386,2844,-382,-3309,-930,3018,-2296,1440,-200,-2828,-1063,2182,-1132,244
795,-714,48,-91,45,-46,805,-712,38,-115,25,-79,808,-695,24,-160,4,-121,793,-660,24,-204,21,-150,792,-651,37,-245,12,-147,838,-686,16,-255,-12,-172,935,-768,-59,-289,-74,-209,1130,-914,-171,-493,-152,-459,1303,-990,-296,-709,-167,-855,1449,-1038,-311,-1144,-252,-1470,1531,-1059,-201,-1830,-571,-2321,1333,-1006,35,-2454,-647,-3420,866,-842,134,-2642,-393,-4250,96,-633,69,-3190,41,-4860,-761,-518,183,-3680,1042,-4520,-1623,-368,857,-3137,1038,-2600,-1871,-598,962,-1280,-303,77,-1896,-1171,886,904,-1682,2301,-1902,-2226,520,2988,-3019,3778,-1384,-2781,78,3696,-4016,4132,-1089,-2972,-158,3956,-4083,3421,-804,-3025,-817,4142,-3972,2312,-557,-2909,-1280,3520,-2599,1065,-441,-2675,-1375,2708,-1366,80,-332,-2240,-1247,1913,-395,-619,-183,-1846,-1048,1144,36,-977,-45,-1495,-821,384,339,-1169,75,-1258,-626,-63,481,-1058,224,-1070,-466,-297,574,-942,357,-929,-348,-369,674,-836
948,-582,111,-225,-182,-64,1021,-626,124,-239,-328,-119,1050,-614,59,-218,-620,-282,1063,-589,-57,-249,-818,-476,1075,-539,-207,-276,-840,-675,1141,-523,-307,-447,-930,-865,1267,-506,-420,-866,-1291,-1321,1349,-446,-514,-1396,-1695,-2031,1248,-348,-527,-1973,-1869,-2852,888,-290,-454,-2589,-1610,-3659,286,-322,-421,-3204,-995,-4123,-739,-394,-356,-4153,-59,-3970,-1899,-394,173,-4669,772,-2552,-2520,-763,682,-3333,-189,556,-2727,-1612,790,-1256,-1688,2630,-3002,-3080,494,1571,-3423,3965,-2801,-3696,118,2612,-4343,4500,-2182,-3795,-284,3366,-4673,3232,-1722,-3619,-827,3748,-4187,1980,-1251,-3426,-1270,3264,-3028,577,-881,-2993,-1372,2627,-1531,-643,-723,-2445,-1178,1769,-688,-1164,-438,-1952,-963,874,-287,-1335,-244,-1611,-727,313,104,-1383,-79,-1327,-509,-57,307,-1234,73,-1144,-363,-221,375,-1040,219,-1002,-250,-209,420,-789,366,-908,-201,-249,424,-654,463,-832,-147,-200,542,-519,561,-782,-118,-225,548,-474
924,-376,39,-38,0,-68,925,-375,15,-45,-27,-11,930,-378,5,-91,-19,19,928,-387,13,-125,7,67,935,-403,25,-147,32,74,922,-416,30,-141,37,97,954,-442,0,-155,-43,95,999,-468,-40,-190,-96,70,1108,-538,-87,-190,-234,14,1259,-616,-142,-265,-376,-147,1490,-690,-262,-423,-689,-545,1840,-822,-297,-751,-746,-1542,1848,-722,-148,-936,-1118,-2776,1522,-755,101,-1311,-1431,-3878,762,-782,130,-1594,-1540,-4681,-125,-705,-118,-2235,-835,-4973,-1393,-452,-84,-2907,434,-4056,-2117,-260,310,-2642,344,-1695,-2370,-627,538,-1181,-548,1400,-2527,-1651,458,916,-2110,3265,-2614,-2642,363,2305,-3484,4252,-2635,-3074,242,3052,-4445,4887,-2684,-3171,-89,3146,-4955,4778,-2532,-3074,-482,2362,-4928,3740,-2305,-2806,-748,2031,-3964,2201,-1985,-2261,-766,1665,-2102,677,-1743,-1880,-628,1156,-765,-259,-1314,-1578,-516,588,307,-1027,-977,-1407,-400,172,1038,-1772,-691,-1318,-346,-120,1520,-2530
941,-252,258,-15,12,-55,943,-256,257,0,2,-40,936,-257,252,11,-25,-13,946,-267,233,15,-50,11,953,-271,220,0,-45,12,958,-270,202,-26,-60,16,957,-273,201,-52,-32,24,946,-283,193,-73,-99,49,942,-307,167,-69,-230,97,1010,-348,95,-53,-458,200,1156,-409,10,-80,-699,261,1475,-558,-135,-324,-1144,101,1774,-655,-322,-741,-1550,-444,1990,-733,-550,-1807,-2172,-1491,1904,-856,-539,-2859,-2048,-2597,1273,-981,-373,-3635,-1113,-3569,281,-981,-345,-4291,-160,-4003,-999,-752,78,-4469,1062,-3082,-1790,-657,730,-3449,951,-851,-2185,-996,1016,-1381,-568,1716,-2503,-2174,1021,1287,-2240,3445,-2566,-3357,704,3056,-3558,4360,-1811,-3965,13,3458,-4352,4189,-1144,-4009,-604,3734,-3720,3012,-670,-3654,-1020,2948,-2814,1488,-438,-3140,-1144,2382,-1743,241,-325,-2428,-1092,1623,-758,-554,-187,-1895,-919,767,-243,-920,-46,-1521,-661,56,108,-1021,95,-1305,-438,-277,330,-998
847,-495,287,-43,-9,-13,857,-503,271,-84,-17,-26,858,-501,255,-121,-18,-44,855,-497,252,-173,5,-57,849,-495,274,-195,34,-70,845,-492,297,-191,36,-78,837,-482,303,-172,19,-70,850,-494,287,-153,-22,-59,892,-516,230,-172,-95,-65,988,-576,146,-259,-169,-110,1164,-701,70,-424,-267,-213,1411,-836,61,-752,-496,-535,1670,-938,0,-1093,-960,-1102,1783,-937,-100,-1924,-1619,-1991,1665,-1003,-73,-3019,-1787,-2985,1233,-990,-64,-3747,-1240,-3641,448,-948,-85,-4409,-61,-3977,-555,-704,231,-4259,1354,-3376,-1574,-427,969,-3293,1564,-1904,-2047,-509,1243,-1449,-168,-108,-2282,-1314,908,1332,-2470,1822,-2314,-2208,378,3100,-3772,2987,-2225,-2712,-46,3806,-4609,3042,-2262,-2851,-499,4233,-5086,2202,-2076,-2849,-905,3944,-5012,977,-1812,-2604,-1250,3675,-3519,-114,-1646,-2329,-1214,2783,-1651,-773,-1349,-2045,-968,1911,-456,-989,-960,-1726,-830,1159,251,-1170,-691,-1488,-638,522,782,-1239,-454,-1308,-575,9,903,-1345
838,-537,164,74,38,91,830,-544,176,60,12,89,826,-552,172,24,-49,95,818,-560,166,-26,-62,92,817,-579,157,-74,-56,100,814,-590,142,-107,-29,105,808,-600,122,-153,-11,120,783,-608,100,-224,0,128,742,-626,72,-292,-10,185,772,-749,46,-339,77,256,966,-987,11,-386,123,236,1300,-1245,17,-552,44,-210,1746,-1384,50,-834,-419,-1018,1867,-1366,238,-1349,-1094,-2142,1551,-1224,516,-2090,-2365,-3523,1035,-1149,603,-2691,-2905,-4413,329,-1110,257,-3323,-2362,-4975,-776,-1015,-108,-3895,-784,-4784,-2280,-787,84,-4478,640,-3267,-3225,-917,730,-3734,602,-177,-3721,-2147,1191,-1376,-931,2368,-3613,-3888,872,990,-2843,3715,-2671,-4336,403,2447,-4068,4237,-1764,-4149,-149,3407,-4251,3249,-1149,-3773,-433,3145,-3969,1658,-799,-3433,-571,2617,-3165,3,-738,-3201,-707,2084,-2847,-1254,-572,-2696,-988,1461,-1730,-1833,-445,-2277,-870,605,-720,-2134,-323,-1807,-670,257,117,-2085
776,-360,17,33,5,193,758,-378,-23,-36,-158,352,843,-483,-61,-147,-315,557,917,-569,-67,-201,-226,637,938,-654,-77,-260,-296,671,1034,-765,-73,-269,-283,649,1071,-833,-72,-195,-277,574,1270,-988,-65,-151,-495,392,1478,-1010,-165,-44,-698,5,1723,-1016,-249,-365,-1237,-520,1637,-970,-293,-1105,-2019,-1373,1275,-866,-265,-2264,-2755,-2139,922,-908,-302,-3701,-3279,-2993,286,-1211,-436,-4514,-2294,-3544,-1214,-1554,-355,-5037,542,-3496,-2946,-1376,378,-5310,1842,-2073,-3764,-1749,824,-3921,662,1194,-4505,-3012,941,-1827,-1040,3012,-5234,-4795,415,161,-3029,4182,-4517,-5181,252,-490,-4096,4653,-3650,-4955,-308,454,-4794,3066,-2952,-4283,-810,296,-4468,474,-2555,-3519,-867,353,-3355,-1672,-1917,-2636,-805,-98,-2105,-3072,-1432,-1901,-707,-637,-953,-3318,-874,-1401,-462,-732,382,-2917,-465,-1081,-268,-664,1275,-2310,-37,-877,-19,-852,1373,-1542,313,-810,157,-956,1178,-1013,599,-726,244,-934,1070,-614
684,-602,-440,-283,-60,-84,691,-588,-468,-196,-67,-30,703,-593,-486,-136,-123,-26,712,-591,-502,-83,-80,-34,709,-586,-499,-50,-64,-56,704,-579,-499,-19,-33,-50,696,-579,-491,6,-12,-25,693,-577,-493,26,-5,-30,702,-564,-504,4,10,-53,718,-547,-525,-50,78,-87,738,-539,-540,-20,137,-73,792,-556,-573,30,92,-68,890,-631,-646,101,33,-104,1153,-798,-832,76,-10,-358,1523,-1014,-988,5,311,-883,1787,-1269,-1110,-456,682,-2196,1462,-1386,-1028,-1366,1441,-3722,905,-1274,-966,-2055,2318,-4532,21,-888,-1032,-3160,3335,-4653,-1308,-642,-965,-3888,4216,-2794,-2788,-811,-46,-3669,3308,-266,-3442,-1153,-31,-2356,-42,1304,-4217,-2217,-878,-14,-2488,3012,-4635,-2882,-1812,922,-3782,2704,-3627,-3192,-2414,1704,-4614,1203,-2538,-2986,-2609,2642,-4200,-39,-1700,-2972,-2655,2708,-2940,-930,-1293,-2713,-2779,2392,-1977,-1952,-1091,-2127,-2587,2082,-854,-2246,-870,-1652,-2122,1455,17,-2259
922,-181,-38,144,208,-47,960,-238,-46,168,237,58,968,-271,-44,206,262,126,976,-301,-90,183,184,144,949,-304,-125,107,177,145,863,-322,-199,32,29,272,788,-333,-334,-38,-20,569,857,-500,-502,-187,-95,956,1115,-735,-653,-521,-166,892,1431,-1094,-661,-854,-107,421,1666,-1429,-447,-1106,-29,-512,1795,-1503,-162,-1290,-262,-2028,1729,-1348,-78,-1558,-515,-3466,1368,-1229,-90,-1983,-252,-4447,721,-1160,-193,-2489,430,-4959,-109,-1008,-428,-3016,1396,-4750,-1398,-685,-578,-3557,2463,-3569,-2734,-577,-273,-4031,2188,-1930,-3632,-1006,-213,-3126,-514,1044,-4173,-2189,-632,-1529,-2601,2922,-4627,-3490,-1280,-295,-3943,3857,-3969,-4209,-1800,301,-4654,3019,-2993,-4041,-2226,1719,-4930,992,-2252,-3556,-2566,2226,-4082,-584,-1707,-2963,-2587,2219,-2524,-1627,-1337,-2398,-2355,1626,-1150,-1977,-893,-1814,-1982,960,-310,-1852,-530,-1396,-1559,390,513,-1577,-295,-1114,-1156,214,877,-1153,-67,-941,-793,-135,975,-801
885,-361,197,187,69,-53,906,-375,193,198,7,20,902,-371,176,146,-48,138,890,-382,166,96,-65,226,863,-406,145,21,-160,294,876,-449,112,-22,-243,379,875,-482,107,-52,-272,450,879,-518,95,-163,-369,411,867,-549,63,-226,-419,382,867,-610,-20,-381,-477,381,931,-754,-143,-469,-550,374,1078,-940,-274,-577,-528,313,1283,-1060,-348,-704,-625,-115,1680,-1143,-377,-1137,-855,-1096,1855,-1165,-427,-1915,-1190,-2694,1620,-1196,-386,-2951,-1159,-4008,1060,-1241,-320,-3463,-466,-4703,32,-1182,-531,-4037,359,-4779,-1226,-1072,-506,-4449,1472,-3267,-2478,-1002,110,-4098,1272,-669,-3038,-1342,305,-2584,-965,1789,-3230,-2474,-116,2,-2934,3486,-3071,-3097,-318,577,-4048,4324,-2341,-3908,-1093,749,-4767,3848,-1676,-3850,-1624,1813,-4768,2290,-1178,-3285,-2139,2076,-4153,565,-915,-2550,-2256,1645,-2631,-477,-739,-1954,-2098,937,-1344,-1099,-559,-1449,-1783,37,-246,-1440,-338,-1207,-1447,-509,680,-1239
869,-513,142,-34,11,-60,872,-512,152,-25,10,-85,870,-500,151,-20,6,-109,871,-490,145,-16,26,-112,876,-490,144,-19,48,-82,886,-495,142,-10,67,-67,885,-485,141,11,67,-52,887,-475,133,2,27,-39,889,-472,124,3,14,-30,862,-453,110,-23,-37,-11,860,-469,53,-44,-111,52,931,-569,-102,-112,-328,124,1178,-760,-367,-321,-598,35,1514,-986,-498,-585,-613,-95,1893,-1300,-373,-1117,-587,-773,1977,-1466,-61,-2038,-845,-2514,1600,-1633,226,-2565,-601,-3809,800,-1582,269,-2636,-43,-4642,-269,-1152,-38,-3077,758,-4981,-1518,-639,-137,-3645,1912,-3938,-2691,-405,302,-3581,1584,-1257,-3201,-782,279,-2460,-637,1436,-3504,-1949,-230,-424,-2826,3286,-3289,-2718,-653,444,-3985,4183,-2519,-3226,-1150,-14,-4730,3258,-1810,-3220,-1689,1524,-4856,1906,-1207,-2777,-1944,2710,-3669,1004,-802,-2526,-1983,2637,-2396,104,-447,-2264,-2002,2318,-1190,-240,-190,-1998,-1882,1585,-526,-862,19,-1542,-1631,966,48,-1147
866,-517,144,-8,7,9,859,-517,151,-12,1,8,861,-522,162,-2,12,17,864,-528,171,0,2,7,858,-519,171,8,-10,-13,840,-507,157,-2,-38,-19,824,-499,130,-23,-82,13,796,-505,84,-57,-144,86,778,-533,-3,-148,-248,205,765,-598,-100,-182,-337,373,730,-705,-197,-263,-386,599,711,-877,-228,-372,-420,804,896,-1238,-235,-479,-543,746,1401,-1492,-277,-541,-666,105,1882,-1644,-211,-880,-773,-1451,1742,-1623,-138,-2054,-1320,-3282,1236,-1743,27,-2975,-1087,-4269,471,-1618,-149,-3870,-539,-4903,-656,-1417,-380,-4441,1087,-4382,-2221,-858,74,-4381,2270,-2602,-2997,-681,497,-3229,490,94,-3279,-1398,173,-1124,-1831,2522,-3209,-2465,-195,397,-3315,3808,-2438,-2979,-367,114,-4328,3983,-1760,-3372,-784,1334,-4858,3399,-1148,-3154,-1311,1832,-4413,2013,-739,-2885,-1671,2050,-3328,828,-571,-2355,-1758,1723,-2034,11,-405,-1875,-1642,948,-917,-457,-279,-1525,-1373,830,10,-636,-119,-1209,-1087,582,546,-741
824,-606,133,-48,24,-26,818,-594,131,-61,21,-34,817,-592,125,-107,26,-8,812,-592,109,-124,14,21,809,-599,87,-126,-2,51,815,-616,70,-88,-26,83,817,-623,65,-46,-26,73,820,-623,69,-32,-19,49,818,-623,85,-18,14,31,807,-617,103,5,17,16,785,-604,93,-8,-19,-19,760,-611,60,-16,-55,-38,766,-654,-11,8,-193,-44,808,-774,-137,129,-297,-42,977,-1008,-198,262,-351,-79,1396,-1217,-195,158,-591,-534,1772,-1162,-151,-302,-1144,-1435,1828,-913,-118,-1288,-1921,-2769,1636,-835,-16,-2437,-2044,-3844,1105,-837,4,-3443,-1287,-4627,103,-776,-189,-4076,24,-4640,-1351,-532,-35,-4549,1502,-3220,-2424,-566,622,-3816,937,-542,-3130,-1362,617,-1535,-1578,2150,-3713,-2919,96,1206,-3361,3692,-3154,-3680,-617,1736,-4305,3759,-2222,-3804,-1377,2735,-4692,2323,-1395,-3400,-2058,3144,-3659,717,-826,-2976,-2184,2657,-1793,-498,-546,-2494,-1884,2349,-351,-1442,-235,-1853,-1532,1724,432,-1711
839,-476,314,-77,-26,18,849,-471,322,-97,-10,1,852,-465,318,-154,-43,-53,860,-458,289,-166,-65,-63,857,-444,254,-153,0,-40,838,-446,230,-204,-1,-7,833,-487,207,-230,12,83,813,-520,189,-231,-83,173,821,-566,133,-291,-221,236,809,-616,89,-336,-300,308,834,-681,-12,-470,-416,301,979,-836,-168,-589,-508,351,1296,-1116,-307,-647,-390,266,1750,-1388,-483,-1429,-734,-769,1918,-1583,-614,-2623,-691,-2243,1407,-1752,-434,-3359,411,-3526,465,-1633,-312,-3669,1381,-4366,-641,-1298,-208,-4240,2162,-4344,-1806,-1183,773,-3801,2383,-2483,-2486,-1448,1277,-945,-322,716,-2736,-2287,651,1674,-2486,2726,-2110,-3166,-458,3160,-3867,3774,-1147,-3443,-913,2489,-3867,3226,-433,-3212,-1724,3021,-3173,1836,-140,-2502,-1981,2769,-1884,765,48,-1925,-1782,1670,-597,-19,158,-1529,-1374,1144,345,-442,303,-1202,-964,741,922,-870,401,-964,-654,579,1163,-1016,518,-772,-474,479,1074,-950
884,-526,191,-156,205,-161,869,-527,222,-178,341,-242,872,-518,227,-130,348,-218,858,-501,230,-106,317,-196,841,-482,234,-105,197,-137,826,-463,229,-119,80,-57,818,-467,227,-171,-26,8,819,-485,216,-189,-75,58,827,-498,206,-189,-87,105,835,-517,190,-196,-108,115,827,-525,159,-247,-171,85,818,-543,108,-301,-246,62,809,-567,39,-314,-261,80,802,-598,-70,-350,-341,106,815,-662,-250,-475,-390,110,992,-893,-381,-429,-452,317,1290,-1152,-380,-437,-546,174,1714,-1352,-362,-807,-841,-513,1997,-1390,-445,-1922,-1690,-2125,1859,-1526,-421,-3546,-1704,-3646,1150,-1674,-320,-4175,-351,-4334,-239,-1559,-465,-4805,1303,-4615,-1793,-1237,91,-4947,2494,-3317,-2872,-1102,881,-3289,951,-32,-3463,-1936,927,-499,-1615,2278,-3554,-3278,402,1940,-3383,3722,-2873,-3672,-133,2225,-4318,3596,-2147,-3758,-998,2939,-4630,2096,-1508,-3291,-1569,3073,-3635,774,-987,-2834,-1758,2556,-1995,-356
787,-640,87,-19,-14,0,789,-645,87,-20,-8,-2,786,-644,89,-16,1,-9,780,-644,89,-13,0,-10,781,-646,88,-5,4,-4,782,-645,85,1,5,0,786,-642,84,4,5,1,784,-640,85,0,1,0,786,-642,87,-3,-1,-1,786,-640,89,4,5,0,783,-641,90,0,-6,0,787,-643,86,4,-2,1,786,-639,86,3,-2,1,780,-635,82,-3,-2,2,744,-640,59,-7,-23,23,710,-679,-29,39,-150,162,818,-876,-306,-15,-513,462,1289,-1325,-653,-446,-621,293,1993,-1880,-922,-1623,-400,-1045,1749,-2482,-778,-3080,666,-3020,635,-2445,-610,-3777,1845,-4112,-1589,-2271,438,-4233,3110,-3947,-3246,-2581,1953,-979,518,-490,-3731,-3778,620,1917,-2169,2161,-2678,-3994,-493,3249,-3346,2503,-1493,-3719,-1559,3281,-2957,1584,-731,-3113,-1930,2799,-1442,672,-264,-2370,-1796,2129,179,-173,-59,-1775,-1380,1346,1244,-843,188,-1326,-981,758,1717,-1229
893,-485,33,-55,8,-34,903,-485,35,-53,27,-22,901,-487,46,-44,48,-23,892,-486,57,-35,53,-28,883,-487,65,-19,49,-17,881,-489,68,-5,26,-6,879,-483,64,10,-2,9,874,-477,53,20,-33,37,863,-481,42,41,-73,97,882,-521,-5,90,-215,198,1047,-666,-157,141,-533,368,1563,-1055,-487,-226,-740,-111,1937,-1262,-866,-1258,-553,-1506,1717,-1458,-993,-2840,631,-3290,887,-1515,-733,-3637,1844,-4234,-395,-1463,-157,-4013,2509,-4342,-1767,-1586,1226,-2443,1171,-2052,-2619,-2142,935,909,-1748,1213,-2171,-2885,-172,2954,-3458,2917,-1275,-3023,-875,3144,-3844,2743,-492,-2737,-1528,3241,-2912,1811,-120,-2288,-1599,2727,-1672,1025,217,-1852,-1510,1924,-365,155,364,-1483,-1209,1308,640,-352,447,-1160,-841,770,1358,-819,520,-956,-559,426,1407,-949,625,-766,-345,155,1149,-887,749,-661,-249,-109,900,-787,799,-615,-96,-94,717,-557,834,-585,-31,-75,518,-408
923,-334,219,-175,28,-127,929,-318,201,-172,-36,-114,949,-321,170,-149,-44,-70,952,-313,154,-155,-44,-46,974,-322,119,-142,-40,-17,974,-317,95,-85,14,24,964,-323,87,-54,17,86,955,-347,71,-42,13,172,975,-399,45,-3,-99,324,1084,-476,-63,-149,-271,340,1410,-704,-344,-454,-360,46,1709,-863,-668,-1016,-280,-907,1776,-1014,-927,-2194,101,-2097,1362,-1202,-818,-3144,1293,-2876,612,-1280,-566,-3644,2385,-3413,-612,-1460,-22,-4109,3495,-3386,-1663,-1350,1125,-2638,2164,-2203,-2208,-1393,1118,-209,-995,21,-2668,-2383,605,2136,-2889,2121,-2315,-3000,-263,3531,-4107,2400,-1769,-3057,-795,3789,-4572,1915,-1131,-2744,-1524,3394,-3632,871,-668,-2381,-1788,2766,-2083,202,-336,-1985,-1685,1848,-407,-319,12,-1604,-1360,1195,672,-647,196,-1289,-994,686,1304,-924,402,-977,-621,294,1446,-924,473,-815,-374,12,1293,-836,646,-709,-278,-68,1005,-612,689,-638,-182,-164,930,-510
833,-527,208,24,25,56,833,-531,210,11,37,66,821,-531,225,13,29,79,812,-534,230,23,-14,117,816,-558,240,64,-43,135,820,-566,246,112,-37,128,819,-572,237,140,-46,125,812,-567,213,140,2,105,794,-546,206,73,43,108,798,-515,210,72,129,215,820,-508,266,-10,195,536,952,-679,340,-191,-89,944,1280,-1311,538,227,-193,889,1325,-1752,778,179,-914,-382,1000,-1765,710,196,-1874,-2159,550,-1355,446,688,-2118,-3081,-9,-869,170,1590,-1683,-3387,-401,-375,-245,2729,-843,-2542,-605,-13,-745,2115,256,-1217,-711,-74,-1105,50,1611,-248,-1048,-710,-1048,-1772,3372,423,-1149,-1311,97,-2204,4257,607,-855,-1505,1209,-2167,3527,256,-429,-1385,1510,-1599,2367,157,-162,-1185,1465,-1249,1483,-44,15,-1012,1318,-853,778,-126,75,-903,1229,-678,288,-268,153,-826,1083,-339,-178,-279,212,-736,941,-170,-433,-369,272,-666,822,-77,-634,-444
773,-565,382,-57,28,-20,762,-537,381,-109,-23,-74,755,-523,379,-95,-16,-26,784,-551,370,-7,31,99,831,-610,355,65,31,214,856,-661,347,-47,-71,108,817,-648,355,-140,-185,-62,783,-625,348,-203,-292,-105,779,-663,333,-272,-467,-13,897,-871,286,-311,-855,87,1181,-1177,132,-272,-1219,-421,1405,-1299,-57,-869,-1564,-1733,1308,-1395,-115,-2154,-1299,-3438,807,-1362,-28,-3004,-423,-4362,-187,-1000,49,-3595,337,-4892,-1387,-809,542,-4100,1464,-3999,-2173,-528,1160,-2518,441,-1387,-2365,-881,848,-92,-1650,1615,-2411,-1929,505,2174,-3132,3264,-1734,-2592,-205,2590,-4236,3807,-1138,-2683,-705,2229,-4272,3347,-583,-2468,-1465,1809,-3939,1769,-292,-2041,-1779,1009,-2698,182,-48,-1533,-1801,676,-981,-445,42,-1193,-1480,407,217,-815,122,-878,-1190,199,786,-1027,235,-674,-1000,81,933,-937,371,-520,-860,-59,921,-822,512,-398,-754,22,999,-603,615,-334,-663,0,1139,-421
983,-140,173,14,-19,47,991,-144,165,15,1,48,1004,-148,159,-8,13,25,1012,-148,162,-33,17,2,1009,-151,164,-53,5,-10,1009,-153,153,-86,0,-24,1002,-144,144,-140,-21,-40,990,-135,148,-184,-35,-42,988,-132,157,-196,-8,-34,985,-131,179,-189,31,-23,982,-126,195,-171,34,-14,990,-129,192,-144,34,0,993,-128,183,-134,23,0,990,-127,159,-190,16,-27,986,-134,160,-190,37,-11,988,-139,168,-191,35,-1,993,-143,177,-157,38,-30,992,-136,177,-142,25,-75,999,-139,173,-103,36,-50,1007,-142,172,-139,32,-109,998,-140,160,-224,27,-145,1023,-102,141,-421,29,-338,1014,-108,146,-559,94,-271,1014,-84,126,-504,61,-91,1041,-101,132,-386,-54,63,1104,-91,66,-323,-209,141,1248,-157,-16,-436,-302,0,1438,-210,-109,-487,-374,-212,1809,-314,-398,-741,-484,-810,1897,-490,-672,-1423,294,-1773
924,-404,131,-43,113,-44,919,-396,143,-36,89,-34,921,-391,139,-42,53,-25,919,-391,146,-46,53,-15,923,-397,149,-40,30,0,927,-400,151,-34,33,0,928,-397,149,-28,6,5,930,-398,142,-29,2,3,929,-397,140,-37,0,2,930,-402,141,-40,4,3,929,-401,140,-39,1,-2,926,-398,135,-40,0,0,927,-401,120,-45,-16,17,966,-421,75,-60,-8,33,1014,-447,23,-99,7,31,1152,-543,-66,-252,-47,-24,1322,-696,-123,-524,-196,-220,1648,-875,-345,-1014,-462,-984,1745,-961,-634,-1937,141,-2193,1260,-1083,-562,-3026,1505,-3500,230,-1137,-308,-3661,2687,-4126,-1126,-1284,844,-3388,2930,-3504,-1957,-1496,1351,-683,-14,-995,-2462,-2376,700,2085,-2472,1816,-1966,-2809,-190,3449,-3870,2884,-1339,-2877,-700,3516,-4118,2335,-731,-2634,-1577,3390,-3260,1128,-279,-2246,-1864,2629,-1738,355,69,-1862,-1697,1745,-103,-426,238,-1501,-1311,1066,939,-1035
933,-352,19,36,-11,234,952,-379,5,65,-78,278,990,-411,-1,84,-222,307,1079,-475,-64,156,-379,310,1275,-660,-180,155,-582,126,1558,-899,-458,-105,-747,-563,1694,-1061,-762,-934,-252,-1674,1327,-1064,-615,-1877,1012,-3081,701,-822,-411,-2377,1923,-3823,-148,-688,-61,-2700,2806,-3791,-986,-506,774,-2110,2638,-2867,-1692,-465,1242,-601,-165,-1247,-2284,-900,908,1575,-2391,412,-2503,-1736,-23,3356,-3824,1836,-2209,-1849,-605,3316,-4582,1760,-2032,-1832,-1005,2629,-4930,1105,-1923,-1654,-1508,2558,-4266,94,-1607,-1417,-1744,1834,-2770,-356,-1267,-1298,-1615,1227,-991,-699,-1011,-1092,-1382,909,101,-952,-705,-925,-1193,452,910,-949,-494,-811,-1008,257,1374,-840,-238,-756,-891,35,1636,-808,-71,-733,-794,146,1774,-776,136,-707,-722,328,1844,-846,299,-675,-639,416,1901,-843,400,-646,-501,385,1915,-692,507,-656,-336,196,1518,-548,624,-666,-281,144,1144,-492,678,-631,-210,168,914,-358,735,-603,-173,148,712,-282
817,-440,-100,-226,-260,96,829,-447,-156,-169,-345,118,829,-392,-231,-343,-398,122,820,-352,-256,-472,-396,184,861,-349,-351,-460,-556,353,991,-409,-573,-257,-766,499,1381,-798,-1222,-286,-590,415,1642,-1331,-1621,-1272,-147,-433,1487,-1563,-1677,-1966,874,-1465,984,-1546,-1376,-2254,1877,-2051,257,-1203,-875,-2217,2724,-2339,-381,-804,-338,-2297,2978,-2308,-1039,-528,480,-1851,2312,-1747,-1491,-423,978,-565,404,-783,-1712,-584,866,881,-1512,137,-1725,-971,203,1561,-3302,561,-1355,-1153,-887,2206,-4178,687,-729,-769,-2467,2257,-3688,611,-173,-485,-2777,1880,-2177,717,154,-421,-2334,1236,-1084,557,257,-358,-1932,912,-616,356,312,-304,-1635,574,-267,131,297,-278,-1405,452,98,23,285,-274,-1211,384,435,-39,307,-268,-1065,301,590,-42,368,-242,-921,357,699,-5,438,-244,-844,365,596,-7,528,-255,-830,449,510,34,571,-278,-799,427,484,56,599,-317,-772,425,455,83
775,-576,-443,76,2,104,796,-572,-463,81,-26,89,805,-603,-492,34,-75,42,827,-626,-582,77,-86,50,876,-651,-751,-164,-180,6,998,-769,-1147,-520,-160,-135,1158,-1011,-1636,-1085,736,-456,1071,-1359,-1629,-1735,2075,-1020,607,-1434,-1217,-1904,3439,-1740,53,-1235,-705,-1950,3956,-2197,-588,-1031,-171,-1948,4203,-2342,-1296,-726,551,-1317,3628,-1983,-1753,-484,900,-507,1218,-1066,-2096,-689,772,866,-1653,805,-2292,-1375,226,2586,-3283,2519,-2044,-1910,-504,3382,-4244,3420,-1782,-2219,-1030,2060,-4567,3173,-1129,-2404,-1702,1949,-3876,2216,-643,-2177,-1828,1726,-2557,1286,-308,-1849,-1671,1230,-1273,514,-113,-1544,-1384,897,-368,76,18,-1271,-1046,430,313,-265,79,-1114,-773,83,651,-426,150,-997,-564,-272,609,-530,265,-933,-499,-318,451,-530,357,-889,-506,-176,473,-477,411,-854,-463,-36,547,-388,451,-848,-429,45,547,-344,452,-811,-369,179,559,-282,445,-766,-317,301,443,-211
639,-744,-275,-234,-75,55,630,-702,-273,-194,-130,41,630,-697,-297,-230,-205,63,621,-689,-324,-240,-273,112,610,-691,-335,-233,-414,182,599,-771,-407,-339,-913,455,709,-1039,-585,-434,-1408,385,939,-1442,-1090,-625,-1453,-259,954,-1664,-1381,-1058,-645,-1108,700,-1623,-1455,-1736,692,-2324,262,-1310,-1220,-2204,1865,-3008,-100,-870,-932,-2168,2398,-3160,-434,-417,-603,-2411,2551,-2953,-796,-183,-213,-2415,2617,-2481,-1337,-82,622,-1644,1379,-1434,-1815,-314,705,-17,-1315,-88,-2102,-766,-354,1941,-3212,1387,-1655,-729,-1481,1970,-3749,1601,-1143,-882,-1753,1819,-3606,1635,-743,-940,-2166,2025,-3112,1206,-379,-915,-2238,1621,-1676,764,-200,-772,-1967,1405,-561,358,-89,-665,-1640,1059,194,83,14,-611,-1362,871,629,-106,53,-570,-1163,722,782,-250,157,-529,-1030,781,879,-326,201,-510,-884,695,876,-358,282,-560,-823,681,767,-341,320,-542,-758,679,744,-316,387,-559,-710,531,624,-286
926,-345,34,-27,-49,43,903,-340,16,-35,-97,107,851,-337,-2,-24,-172,229,802,-388,-53,-33,-324,485,744,-494,-134,40,-499,789,798,-709,-421,-15,-807,1141,926,-1045,-724,-377,-668,1149,1093,-1530,-841,-956,-239,844,1301,-1943,-853,-2026,78,-167,1147,-2193,-662,-3070,995,-1780,591,-2119,-362,-3165,2152,-3270,-209,-1710,-231,-3246,3011,-4336,-1076,-1180,-41,-2957,3912,-4635,-1853,-516,445,-2428,3604,-3628,-2369,36,635,-1564,1925,-1415,-2784,-100,955,-535,-341,1116,-3395,-1579,418,1748,-2658,3104,-3323,-2387,-241,3032,-3884,3989,-2658,-2759,-674,3169,-4669,3594,-2056,-2714,-1213,3136,-4508,2378,-1406,-2391,-1553,2538,-3120,984,-1029,-2037,-1557,1864,-1617,-160,-760,-1651,-1303,1286,-129,-1146,-520,-1405,-1039,928,689,-1667,-261,-1194,-816,550,1212,-1935,4,-1067,-675,117,1393,-1905,199,-957,-542,85,1455,-1665,385,-824,-455,-47,1295,-1387,525,-734,-353,-137,1151,-1086,634,-662,-255,-28,1107,-752
805,-569,-77,-323,-172,417,828,-630,-117,-390,-363,509,865,-707,-187,-455,-511,595,959,-814,-286,-532,-600,615,1170,-1001,-422,-608,-604,540,1409,-1113,-489,-740,-512,275,1712,-1162,-524,-1143,-649,-456,1922,-1196,-598,-2244,-1405,-1840,1829,-1323,-604,-3320,-1268,-2957,1176,-1443,-292,-3730,-184,-3870,491,-1278,-284,-4174,231,-4579,-514,-1078,-665,-4786,1477,-4071,-1821,-1057,-579,-4965,3126,-2528,-3051,-979,206,-4480,2742,-682,-3574,-1343,372,-2991,482,1727,-4120,-2778,252,-538,-2059,3452,-4140,-4236,-623,1258,-3525,4272,-3139,-4549,-870,2102,-4469,3348,-2544,-4202,-1392,2776,-4952,1787,-1955,-3488,-1881,2479,-4203,73,-1614,-2745,-1958,1758,-2392,-993,-1352,-2243,-1765,973,-877,-1372,-995,-1830,-1486,229,286,-1459,-667,-1558,-1259,-363,1039,-1434,-337,-1370,-1064,-717,1650,-1367,-1,-1252,-996,-490,2267,-1496,180,-982,-779,-131,3112,-1275,264,-781,-404,-370,2874,-1253,417,-598,-124,-592,2253,-1152,485,-448,65,-780,1770,-995
981,-543,-57,-199,-15,81,935,-534,-102,-182,-3,-21,864,-526,-154,-167,-68,-50,799,-537,-207,-196,-166,0,717,-606,-292,-217,-412,143,721,-739,-466,-300,-802,292,1020,-950,-648,-370,-1011,562,1454,-1074,-830,-704,-1160,324,1782,-1074,-1167,-1692,-1417,-458,1809,-1205,-1277,-3100,-1356,-1399,1527,-1598,-950,-4121,-119,-2478,618,-1717,-594,-4393,1347,-3745,-410,-1531,-675,-4294,2169,-4457,-1616,-1377,-750,-4857,3077,-3986,-2846,-1270,-175,-5021,3634,-2033,-3442,-1445,273,-3537,1174,935,-3806,-2275,189,-1429,-1130,2858,-4442,-4262,-453,709,-3107,4095,-3526,-5017,-958,1330,-4153,3704,-2648,-4641,-1326,2678,-4625,1569,-2046,-3820,-1735,2626,-3968,234,-1664,-3028,-1895,1744,-2361,-784,-1354,-2501,-1844,1091,-665,-1359,-1025,-2052,-1583,309,661,-1423,-633,-1696,-1334,-396,1435,-1427,-357,-1444,-1080,-673,1963,-1204,-77,-1190,-844,-914,1998,-1072,123,-975,-636,-911,1987,-852,296,-782,-428,-867,1814,-645,411,-642,-300,-763,1473,-401
835,-382,96,-15,-135,74,846,-429,66,-77,-262,234,847,-488,6,-134,-453,391,893,-629,-46,-190,-561,588,934,-797,-100,-224,-717,735,1118,-1022,-214,-261,-950,782,1354,-1096,-335,-334,-995,620,1670,-1099,-490,-829,-1377,76,1801,-1003,-641,-1759,-2019,-714,1653,-1052,-623,-3131,-2168,-1614,1362,-1180,-443,-4042,-1450,-2519,762,-1325,-394,-4618,-226,-3604,-269,-1319,-596,-4661,1368,-4239,-1778,-1072,-665,-4917,2429,-4116,-3181,-958,-127,-4998,2286,-2256,-4143,-1664,261,-3373,236,1076,-5255,-3885,353,-603,-2218,3082,-5451,-5534,-242,570,-3621,3817,-4305,-5662,-1265,2732,-4477,1588,-3320,-4719,-1692,2589,-4027,71,-2482,-4018,-1813,1475,-2494,-1400,-2113,-3323,-1619,965,-768,-2282,-1563,-2577,-1335,434,309,-2324,-1072,-2145,-1106,-97,780,-1997,-595,-1664,-954,-318,1102,-1657,-227,-1354,-816,-663,1388,-1373,112,-1131,-641,-954,1739,-1225,286,-955,-393,-893,2101,-1084,459,-743,-157,-795,1702,-1016,600,-550,-84,-681,1273,-779
769,-554,16,-332,-425,85,823,-612,-51,-310,-353,131,826,-609,-47,-197,-345,168,826,-645,-77,-98,-351,299,797,-641,-103,-32,-399,509,749,-606,-122,-80,-477,460,749,-632,-226,-201,-508,356,868,-723,-469,-490,-787,145,1235,-905,-1043,-829,-942,-141,1708,-1210,-1749,-1443,-459,-739,1842,-1603,-2090,-2419,572,-1633,1465,-2176,-2020,-3262,1892,-2333,453,-2427,-1881,-3415,3424,-2869,-650,-2018,-1572,-3522,4295,-2964,-1754,-1729,-810,-3044,4871,-1896,-2488,-1456,395,-1638,3207,-732,-2740,-1285,554,213,-146,-3,-2778,-1566,20,2117,-2380,669,-2639,-2153,-635,3636,-3818,1701,-2450,-2428,-1706,4120,-4578,1261,-2086,-2197,-2690,3811,-4657,861,-1574,-1692,-3294,3107,-3467,465,-1145,-1109,-3252,2153,-1629,255,-857,-709,-2771,1343,-159,217,-593,-485,-2029,492,736,221,-378,-418,-1365,-360,937,-2,-204,-419,-970,-896,756,-251,-101,-345,-778,-688,539,-271,6,-191,-857,-467,292,-260,67,-63,-945,-208,218,-175
534,-79,-791,151,133,36,538,-117,-782,289,-66,73,530,-148,-823,450,-249,140,536,-197,-982,649,-392,249,665,-347,-1395,836,-446,324,866,-496,-1977,423,-145,169,1099,-791,-2452,-1092,490,-439,1016,-1278,-2487,-2399,1824,-1038,393,-1654,-2039,-3049,3463,-1801,-340,-1564,-1512,-3097,4243,-2358,-1082,-1334,-1107,-3072,4594,-2395,-1856,-1146,-442,-2682,4803,-1836,-2725,-983,759,-1428,2406,-835,-3299,-1332,643,898,-843,606,-3438,-2208,-379,2986,-2943,2567,-3055,-2432,-914,3324,-4055,2770,-2565,-2715,-1601,3159,-4765,2233,-1949,-2496,-2316,2815,-4410,1229,-1511,-2036,-2696,2299,-3006,410,-1223,-1506,-2490,1600,-1128,-82,-1006,-1142,-2004,896,129,-255,-771,-888,-1430,384,833,-264,-567,-741,-1070,58,911,-235,-384,-673,-852,-128,723,-198,-234,-614,-819,-160,515,-166,-123,-571,-827,-217,431,-133,-40,-539,-848,-179,362,-118,0,-510,-879,-194,307,-101,41,-509,-903,-184,241,-56,80,-492,-914,-158,214,-35
541,897,265,810,-588,-418,729,1200,-4,1506,-959,-270,971,1518,-283,1786,-814,31,1121,1768,-523,2247,-548,560,1168,1970,-638,2686,-48,1146,992,2040,-490,2785,944,1709,644,2053,-314,2936,2063,2479,162,1757,-91,2388,2599,3365,-257,1286,-91,2066,2528,3658,-666,817,-18,1627,2400,3328,-1147,366,257,1190,2313,2495,-1491,-47,739,185,1920,1093,-1694,-124,996,-935,115,-671,-1923,342,879,-2397,-1563,-2538,-2461,1301,588,-3796,-2972,-3918,-2813,2484,68,-3643,-3896,-4649,-2372,3732,-1037,-3369,-4494,-4445,-1571,3757,-1806,-2599,-3906,-2933,-1049,3052,-2107,-1868,-2439,-1007,-895,2250,-1774,-634,-951,460,-814,1557,-1161,224,170,1169,-632,1108,-659,461,693,930,-465,925,-332,495,665,542,-251,865,-236,318,113,210,-86,843,-318,161,-270,98,32,822,-435,-64,-401,10,62,809,-517,-87,-369,-2,66,835,-574,-57,-305,-21,53,853,-590,-95,-165,-18,36,868,-575,-96,-89,-29
563,787,125,-365,19,-219,542,813,153,-265,18,-255,528,837,154,-268,-51,-286,521,840,125,-199,-143,-295,514,856,92,-99,-182,-324,512,882,64,-40,-145,-330,515,961,27,38,-104,-386,669,1239,-139,335,-248,-281,893,1607,-433,917,-428,295,1073,1851,-627,1549,-378,934,1116,1933,-599,2297,-60,1722,1052,1895,-377,2675,334,2268,804,1628,-140,2617,797,2788,518,1447,-221,2562,1149,2966,30,1293,-154,2377,1949,3263,-513,793,-28,2366,1944,3621,-1070,218,374,1876,1737,2787,-1486,-129,929,503,934,938,-1721,16,1160,-1043,-362,-886,-2023,800,1078,-2928,-1991,-2722,-2216,1763,451,-4050,-3262,-3881,-1936,2887,-569,-4364,-3822,-4295,-1270,3321,-1214,-3937,-3229,-3547,-642,3223,-1668,-3047,-2335,-2138,-388,2594,-1748,-1969,-1247,-696,-362,1895,-1488,-715,-95,416,-325,1487,-1154,266,597,861,-230,1236,-827,584,1093,953,-91,1032,-627,527,1208,901,95,858,-491,476,1166,810
853,379,-114,13,-50,215,758,383,-85,-79,25,20,687,468,-105,-298,70,-333,665,597,-208,-308,52,-561,613,654,-288,-183,47,-616,638,737,-409,309,-61,-650,901,998,-598,810,-103,-577,1194,1135,-761,1368,82,-275,1405,1255,-810,2135,219,304,1529,1275,-734,2735,318,947,1604,1215,-633,3350,419,1828,1374,1076,-433,3398,1180,2410,705,863,-10,3033,2319,2844,119,555,302,2404,2687,2707,-398,308,464,1481,2588,1657,-712,160,686,280,2185,189,-886,114,689,-971,843,-1173,-938,211,507,-1938,-463,-2160,-949,480,168,-2655,-1524,-2947,-996,778,-180,-2417,-2403,-2987,-981,1177,-849,-2214,-3130,-2724,-652,1474,-1501,-2228,-2867,-2429,-197,1696,-2002,-1959,-2249,-1939,98,1615,-2179,-1516,-1029,-1061,149,1355,-1956,-1058,-45,-405,127,1106,-1536,-244,465,258,132,936,-1224,101,635,631,142,755,-1009,375,697,1003,188,598,-875,458,768,1007,280,437,-798,474,855,1049
922,396,-132,-17,-71,-14,903,367,-118,-40,-80,-55,903,355,-130,-28,-237,-137,977,428,-262,96,-556,-221,1174,533,-574,415,-620,-14,1424,583,-848,1010,-109,462,1579,611,-928,1269,430,819,1610,701,-784,1903,867,1481,1429,787,-578,2076,1460,1927,1001,796,-320,2106,1971,2588,565,604,-162,2016,2166,2897,115,395,65,1567,2296,2496,-411,201,382,1252,1895,2124,-936,46,985,288,931,1026,-1565,55,1227,-1716,-1597,-1282,-2073,553,804,-3323,-3249,-3070,-1814,673,104,-2715,-4204,-3316,-1841,1082,-349,-2083,-4504,-3017,-1650,1309,-1372,-1817,-4086,-2063,-1363,1299,-1990,-1249,-2987,-1211,-1104,1134,-2226,-616,-1289,-306,-895,863,-1998,4,247,281,-682,672,-1509,761,1436,921,-528,467,-1171,578,1994,960,-257,294,-929,647,2014,1158,-41,142,-759,791,1869,993,145,66,-604,643,1867,896,310,-58,-503,406,1626,705,442,-83,-448,286,1474,673,526,-175,-422,208,1218,721
653,740,174,-116,-78,-382,662,767,175,-114,-25,-375,678,800,188,-66,52,-278,701,832,214,-36,98,-154,696,847,250,94,101,15,689,865,253,146,7,136,656,840,219,99,-59,238,573,845,172,-42,-194,159,447,879,19,-67,-491,94,471,942,-329,304,-1005,37,623,1075,-790,1227,-942,-40,856,1307,-1106,2155,-204,-202,1008,1639,-1035,2889,887,-501,1110,2304,-940,3217,2357,-18,466,2372,-345,1929,3648,1606,-193,1803,25,1703,3313,3383,-604,1255,17,1254,3131,3757,-1113,746,69,538,3291,2692,-1700,183,680,-643,3108,1073,-2579,-91,1190,-2096,343,-1564,-3251,1080,410,-3480,-2087,-3239,-3105,2099,-408,-2568,-3650,-4046,-2453,2675,-1148,-2557,-4018,-3862,-1562,2783,-1777,-1985,-3433,-2649,-994,2527,-2060,-1503,-2189,-1149,-665,1994,-1911,-814,-584,372,-585,1484,-1457,0,697,1653,-479,1103,-1067,618,1161,2000,-239,796,-782,949,1248,1912,17,535,-603,759,1340,1485
719,378,59,-90,-219,-6,681,441,2,-354,-461,-266,674,514,-81,-521,-469,-327,664,566,-148,-496,-485,-337,740,672,-283,-393,-674,-424,929,766,-496,-225,-674,-439,1137,802,-742,345,-526,-429,1389,835,-949,1323,-224,-352,1790,1006,-1044,2447,-402,32,2058,1233,-926,3010,196,776,1721,1414,-610,2981,1458,1476,956,1525,-195,2179,2659,2410,258,1157,-158,893,2656,3270,-451,662,-346,721,2415,3831,-1220,124,-191,414,2429,2860,-1892,-268,227,-142,1716,512,-2299,-92,395,-1224,283,-1967,-2705,1193,96,-2490,-770,-3593,-2718,2024,110,-1517,-1708,-4502,-2125,3069,-407,-1664,-2452,-4874,-957,3594,-976,-1703,-2143,-3785,-178,3466,-1305,-1503,-1287,-1845,-91,2652,-1159,-366,-489,433,-111,2040,-950,270,62,1514,-80,1380,-704,560,516,1852,45,1001,-539,679,666,1690,196,680,-429,795,786,1428,346,564,-347,1079,730,1173,574,484,-317,1016,708,876,751,469,-317,512,938,456
890,469,44,-32,44,-40,892,477,43,-29,17,-42,897,481,39,-26,11,-37,900,490,36,-22,7,-33,899,492,38,-25,15,-22,895,490,43,-28,17,-19,891,492,48,-30,22,-15,887,487,52,-29,19,-10,887,487,54,-30,17,-15,888,491,55,-21,18,-11,889,493,57,-24,20,-12,892,494,58,-17,20,-3,894,494,60,-7,13,8,897,492,60,8,1,24,895,491,63,17,-4,36,891,485,62,12,-10,39,891,482,59,14,-9,43,887,475,60,8,-7,29,958,521,6,100,-99,86,1276,713,-318,545,-234,497,1910,861,-821,1583,-295,1506,2451,879,-1077,2296,600,2625,1841,1260,-723,2316,2440,2969,-116,1563,381,1286,3283,3692,-2459,936,1435,-604,622,1676,-4272,1733,929,-2774,-2110,-1521,-4542,2235,209,-3392,-3556,-2996,-3713,2820,-869,-3307,-4394,-3056,-2663,2898,-1636,-2926,-3780,-2060,-1768,2490,-2095,-1773,-2286,-651
917,441,79,41,85,138,869,438,97,9,85,96,819,422,106,11,0,12,750,460,67,73,-204,-169,665,581,-21,26,-386,-459,591,712,-131,-100,-569,-748,765,941,-488,316,-1003,-935,1145,1171,-989,999,-897,-815,1480,1502,-1244,2040,-74,-599,1461,1834,-943,2284,1387,-195,871,2044,-298,2337,2790,1122,140,1761,175,1334,2890,2853,-430,1115,229,853,2193,3991,-783,647,188,387,2191,3965,-1126,9,184,-213,2111,3165,-1273,-508,333,-427,1383,1477,-1482,-579,534,-1554,738,-1478,-1867,32,694,-2524,-426,-3315,-1825,1241,496,-2749,-1328,-4287,-1376,2368,145,-1923,-2004,-4344,-743,2874,-368,-1903,-1910,-3306,-272,2664,-768,-1380,-1563,-1745,-48,2214,-926,-996,-1001,-552,34,1671,-824,-485,-272,309,73,1338,-654,-200,242,618,153,1088,-477,45,602,673,229,973,-314,190,806,611,303,894,-165,127,895,497,370,870,-89,167,784,473,449,869,-74,109,660,426
834,546,-71,12,-21,-125,823,569,-76,32,1,-151,779,580,-76,26,37,-198,716,580,-92,46,-2,-240,625,630,-126,-59,-132,-366,573,776,-260,15,-408,-501,709,889,-613,376,-535,-581,1047,1167,-1104,1396,-151,-588,1483,1667,-1317,2482,207,-186,1921,2174,-1190,3299,963,872,1564,2403,-667,2807,2540,2131,396,2043,-17,1786,3302,3537,-423,1429,185,1010,2680,4042,-954,801,81,477,2202,3266,-1354,307,271,-335,2243,1623,-1895,12,860,-1769,1162,-957,-2387,671,466,-3316,-1226,-2876,-2550,1766,0,-3040,-2605,-4096,-2115,2714,-803,-2428,-3811,-3971,-1415,2800,-1622,-2327,-3736,-2632,-826,2258,-2070,-1725,-2141,-1015,-637,1816,-1977,-762,-551,27,-531,1329,-1629,78,645,637,-401,1060,-1329,577,1249,868,-217,800,-1076,748,1555,859,-40,655,-902,750,1587,779,131,535,-777,767,1509,769,266,419,-696,696,1255,731,458,337,-613,819,1038,705,595,258,-607,566,963,536
911,433,-133,-314,-175,-261,846,528,-205,-317,-638,-122,739,575,-333,-467,-903,-301,675,690,-556,-320,-1296,-787,699,870,-924,146,-1534,-1287,993,1178,-1547,1092,-1205,-1613,1222,1482,-1617,2358,-251,-1309,1473,1895,-1405,3755,941,-307,1124,1926,-957,3171,2727,1008,91,1461,-417,2002,3868,2365,-625,1102,-51,1497,3266,3429,-1262,583,79,1029,2394,3576,-1594,30,501,394,1923,1947,-2028,-184,855,-1358,522,-1181,-2481,788,658,-2513,-1944,-3147,-2059,1851,-189,-2222,-3386,-3500,-1704,2260,-1143,-2438,-3885,-2521,-1301,2044,-1803,-2194,-3339,-1327,-947,1564,-1991,-1796,-1805,-298,-762,1172,-1811,-1196,-569,231,-527,903,-1486,-482,375,419,-311,757,-1227,33,881,464,-121,616,-1090,197,1372,307,17,531,-994,333,1671,128,196,541,-842,441,1876,-44,332,562,-673,258,2023,-117,474,591,-481,69,1699,-121,621,609,-407,-32,1092,-27,714,596,-412,-164,633,112,760,544,-449,-242,432,255
799,456,-107,-191,-237,-374,839,484,-139,-253,-211,-469,873,517,-137,-202,-174,-489,877,567,-116,-131,-120,-436,841,612,-110,-111,-96,-408,810,675,-142,-102,-116,-381,883,790,-287,79,-335,-271,1196,947,-706,698,-565,180,1477,1027,-1071,1417,-360,678,1588,1144,-1105,2064,319,1233,1403,1306,-747,2360,1124,1667,952,1316,-177,2283,1781,2452,522,1095,184,1959,1810,3191,15,673,219,1760,1583,3689,-496,341,268,1628,1765,3333,-1019,49,633,1080,1653,2037,-1461,-32,1048,-359,-85,-363,-1730,470,916,-1975,-2246,-2489,-1799,1075,407,-3241,-3714,-3602,-1524,1658,-283,-3411,-4215,-3382,-1088,2047,-1212,-3237,-3856,-2566,-623,2091,-1836,-2660,-2821,-1542,-347,1753,-1915,-2177,-1295,-579,-202,1410,-1655,-1388,-263,102,-74,1118,-1303,-751,422,500,49,905,-1057,61,600,901,153,769,-895,671,682,1037,293,681,-753,480,917,722,409,625,-645,173,1061,532,526,580,-553,3,998,369
724,382,39,-78,-312,-158,574,519,6,-331,-352,-707,454,697,-121,-627,-619,-1259,361,887,-364,-275,-1251,-1531,452,1127,-975,-7,-1589,-1802,521,1432,-1351,872,-466,-1818,674,1970,-1559,2283,398,-1444,784,2567,-1542,3222,1636,-640,505,2746,-1211,3081,3056,724,-120,2382,-719,1854,4075,2449,-681,1731,-481,1406,4154,3570,-1258,1092,-282,1125,4237,3892,-1827,429,119,632,4212,3126,-2350,-61,816,-494,2430,280,-2747,194,760,-2080,-277,-2135,-2931,1467,371,-3275,-2089,-3689,-2848,2073,-17,-1789,-3474,-4273,-2281,2658,-959,-2084,-3946,-3548,-1590,2586,-1577,-1684,-3051,-2217,-1189,2396,-1790,-1322,-1587,-913,-892,1852,-1573,-729,-205,136,-660,1443,-1210,-102,685,847,-462,1078,-865,502,1069,1286,-223,907,-694,802,1209,1401,-36,670,-625,907,1307,1300,171,529,-628,1237,1313,1106,322,417,-563,1182,1473,809,460,354,-463,693,1536,396,670,397,-432,142,1210,-74,799,460,-413,-181,1020,-290
748,531,192,-100,-275,178,689,547,164,-193,-267,-129,637,697,91,-347,-289,-515,696,853,-53,-398,-483,-665,843,1027,-324,114,-742,-523,997,1138,-539,793,-642,-307,1256,1376,-693,1752,-260,75,1546,1610,-642,2514,447,697,1328,1793,-284,2405,1857,1619,802,1682,127,2029,2295,3177,273,1276,152,1823,2011,4178,-279,887,150,1452,2052,4039,-850,543,316,800,2370,3285,-1294,217,679,-250,1613,1738,-1392,230,635,-1793,118,-613,-1293,721,358,-3473,-789,-2823,-1281,1073,185,-3328,-2175,-3737,-1095,1422,-538,-2341,-3560,-3178,-781,1505,-1221,-2286,-3166,-2347,-594,1516,-1670,-1703,-2474,-1569,-408,1490,-1950,-1073,-1673,-842,-332,1211,-1941,-779,-547,-287,-282,905,-1703,-304,309,45,-212,741,-1443,137,824,232,-99,620,-1203,371,1234,334,10,562,-1033,416,1521,360,162,514,-873,202,1721,324,309,463,-752,27,1793,313,460,408,-633,-87,1758,275,560,373,-504,-123,1634,224
901,413,-6,94,26,-41,913,411,23,97,45,-97,930,431,47,89,65,-108,940,447,68,60,56,-77,938,457,65,39,28,-18,925,450,56,10,-7,21,917,441,33,7,-43,51,909,426,15,6,-59,37,905,432,-4,-1,-61,-11,876,449,-35,-96,-22,-150,818,511,-129,-173,-113,-337,827,611,-423,52,-411,-541,1108,793,-920,807,-525,-493,1642,1148,-1319,1772,251,-50,1885,1688,-1150,2207,1637,639,1332,2302,-515,2330,3350,1983,199,2291,71,1172,3853,3451,-718,1734,103,534,3281,4026,-1375,1038,399,-265,2804,2879,-1671,440,623,-1123,1060,899,-2352,449,434,-2306,-1761,-1868,-2911,1008,-77,-3221,-3347,-3414,-2686,1075,-402,-2682,-3934,-3372,-2695,1204,-686,-1662,-4465,-2770,-2369,1418,-1295,-1582,-4131,-1664,-2006,1402,-1638,-1346,-2953,-665,-1675,1243,-1640,-1202,-1418,267,-1359,969,-1388,-891,-331,721,-1026,789,-1136,-443,475,880,-785,690,-926,-40,805,856
1021,172,-3,-49,41,-58,1033,181,-8,-46,30,-33,1043,192,-11,-62,40,1,1057,182,-2,-59,5,61,1054,170,0,-60,-49,126,1023,160,10,-93,-62,120,989,154,10,-113,-131,77,957,150,-12,-142,-149,26,892,147,-21,-198,-139,-148,805,194,-35,-326,-235,-451,708,345,-121,-703,-513,-963,707,512,-412,-559,-844,-1104,923,649,-1070,384,-936,-990,1344,925,-1666,1538,-372,-755,1775,1451,-1676,2614,645,-125,1622,1910,-1145,2796,2226,762,820,1834,-420,2131,3582,1692,-63,1262,192,781,3580,2506,-620,719,388,224,2365,2933,-1088,250,455,-183,1393,1968,-1778,-13,995,-1046,380,-656,-2761,445,724,-2409,-2203,-2848,-3119,892,35,-2980,-3611,-4008,-3163,1707,-409,-1983,-4210,-4541,-2758,2350,-902,-1817,-4254,-3863,-2035,2496,-1325,-1475,-3504,-2239,-1546,2169,-1355,-1331,-2120,-652,-1228,1641,-1104,-717,-724,581,-950,1358,-868,-63,202,1229,-690,1207,-737,88,806,1429
613,518,559,7,-212,259,600,476,556,42,-125,237,594,447,555,83,-81,175,595,448,547,137,-72,109,612,505,516,196,-82,104,644,620,419,380,-187,190,732,856,303,587,-198,335,864,1037,172,869,-212,610,1095,1250,119,1349,-239,809,1303,1417,277,1595,-6,1177,1362,1473,556,1956,-145,1799,1251,1296,857,1977,-279,2391,1134,1061,1015,1824,-424,3010,859,728,1033,1380,-376,3697,201,430,859,809,30,4174,-607,73,580,626,168,4327,-1251,-251,316,702,606,3636,-1826,-569,349,61,1845,1195,-2510,-503,780,-731,1969,-1750,-3037,106,1296,-1613,770,-3351,-3143,1246,1588,-2159,-941,-4380,-2963,2408,1637,-2446,-2013,-4923,-2301,3728,905,-2595,-2769,-3973,-1784,3781,21,-2416,-2488,-2200,-1282,3345,-498,-1483,-1736,-471,-1181,2382,-468,-1383,-992,355,-772,1590,-337,-188,-796,283,-473,1351,-203,314,-492,327,-145,1218,-149,212,-255,269,11,1101,-106,165,29,347
850,582,269,428,-49,347,889,613,202,627,-41,431,962,660,156,902,4,513,1041,737,138,1173,50,585,1161,852,184,1439,79,722,1243,913,300,1645,19,937,1272,912,490,1783,-213,1287,1242,728,676,1765,-548,1608,1214,550,863,1614,-847,2022,992,352,929,1044,-936,2560,521,107,798,492,-1018,3238,-204,-269,459,264,-931,3910,-689,-556,-2,174,-512,3913,-1027,-934,-493,230,435,3133,-1371,-1025,-652,209,1851,1713,-1899,-978,-395,261,3035,-180,-2546,-692,264,180,3309,-2279,-3220,319,1107,-187,1816,-3771,-3240,1347,1176,-411,-302,-4561,-2442,2667,878,-999,-1517,-4836,-1675,3573,292,-1416,-1939,-3925,-1101,3728,-530,-1037,-1614,-1580,-865,2889,-875,-867,-659,298,-642,2145,-782,217,-180,1327,-407,1518,-532,412,455,1559,-179,1130,-318,446,830,1292,66,934,-123,326,1042,971,264,806,-22,135,969,689,448,745,14,9,818,487,566,726,32,-118,710,297
601,-677,-488,215,-91,-28,592,-689,-464,204,-45,-7,582,-709,-446,219,-49,20,586,-731,-428,206,-2,58,584,-740,-399,182,37,108,602,-755,-399,168,-13,196,634,-772,-419,169,-29,316,648,-800,-438,271,66,669,621,-903,-352,598,95,1231,511,-1017,-304,715,179,1699,235,-1107,-304,840,324,2269,-369,-1256,-333,1216,835,2572,-1323,-1339,-115,1436,1949,1496,-2289,-1200,461,1094,2291,-967,-3142,202,919,-145,2051,-3025,-3566,1139,1394,-291,315,-4114,-3401,2253,959,-1030,-2191,-4814,-2744,2762,327,-1724,-2942,-4498,-1943,3076,-415,-1706,-2992,-3152,-1334,2893,-1002,-1174,-2173,-1703,-902,2632,-1168,-1393,-561,-428,-679,2159,-1012,-999,292,416,-468,1750,-725,-876,989,980,-362,1423,-475,-704,1260,1199,-177,1202,-253,-434,1244,1093,16,1024,-71,-415,1207,949,184,925,55,-498,1170,796,329,853,156,-742,1272,793,422,806,255,-1171,1541,882,427,733,437,-1360,1668,962
768,-583,278,-932,-176,-74,817,-690,212,-944,-352,129,1047,-861,194,-902,-447,357,1388,-906,183,-942,-589,203,2029,-932,125,-1243,-964,-831,2204,-944,80,-1634,-1405,-2218,1963,-1198,115,-2341,-1370,-3600,1201,-1451,169,-2632,-422,-4522,268,-1432,-166,-2869,535,-5010,-1025,-1187,-537,-3237,2129,-4590,-2532,-867,-201,-3370,2867,-3101,-3713,-820,227,-2531,1016,-25,-4591,-2251,315,-555,-1321,2283,-4850,-4309,-207,1163,-3215,3768,-4185,-5001,-549,1833,-4218,4266,-3086,-4688,-1423,2581,-4713,3179,-2101,-3948,-2104,2222,-4029,1482,-1467,-3006,-2176,1501,-2079,17,-1150,-2233,-1796,807,-453,-752,-849,-1749,-1400,340,393,-992,-612,-1399,-1066,60,910,-909,-343,-1181,-907,-210,938,-808,-140,-1037,-822,-478,1149,-745,22,-937,-748,-505,1335,-610,144,-828,-646,-572,1502,-565,287,-716,-569,-482,1560,-489,416,-639,-454,-384,1542,-384,548,-568,-364,-287,1359,-237,651,-530,-269,-355,1148,-224,715,-519,-198,-242,1059,-121
1446,-851,35,-868,-15,-1721,1057,-642,334,-983,-475,-2219,738,-313,467,-1028,-946,-2388,543,-38,497,-1011,-1117,-2227,392,243,460,-749,-979,-1679,319,456,368,-580,-893,-1269,325,635,233,-405,-885,-951,372,780,77,-369,-954,-830,453,859,-104,-578,-1166,-1199,514,1070,-176,-1117,-1306,-1998,445,1180,-204,-1704,-640,-2570,-57,1002,-278,-2539,591,-3083,-1370,556,-214,-3452,2239,-2412,-2856,134,124,-3620,2296,-722,-4481,-1203,683,-2637,585,2007,-5314,-4027,616,274,-2101,3611,-4964,-5432,286,2094,-3551,4179,-4008,-5340,-663,3276,-4484,2572,-3199,-4468,-1383,3205,-4589,714,-2393,-3549,-1713,2048,-3119,-802,-1983,-2782,-1613,1258,-1454,-1513,-1511,-2154,-1355,357,-200,-1549,-1068,-1764,-1118,-165,340,-1278,-652,-1464,-935,-455,874,-982,-382,-1231,-778,-579,1196,-782,-152,-1044,-684,-774,1348,-617,56,-938,-633,-843,1412,-490,221,-812,-628,-875,1494,-346,397,-749,-648,-1086,1418,-307,534,-696,-602,-1086,1699,-234
799,637,-23,-275,-266,-392,763,652,-41,-142,-248,-366,765,660,-86,-56,-212,-365,805,675,-147,-105,-282,-467,838,720,-262,-410,-715,-847,902,941,-403,-1215,-1264,-1658,887,1049,-450,-1884,-1061,-2160,626,988,-335,-2650,77,-2637,-92,746,-104,-3246,1768,-2579,-1251,439,315,-3369,2718,-1811,-2507,41,671,-3151,1858,-634,-3523,-928,894,-1865,-96,1765,-4532,-3520,788,1081,-2505,3474,-4708,-4872,272,2358,-3793,3731,-3745,-4719,-417,2594,-4621,2106,-3132,-3839,-898,2596,-4362,65,-2608,-3007,-1106,1634,-3163,-1432,-2254,-2430,-1278,1123,-1902,-2080,-1815,-2033,-1466,784,-585,-2183,-1449,-1736,-1431,565,349,-1910,-978,-1443,-1371,-131,789,-1533,-652,-1223,-1200,-410,1242,-1140,-377,-1063,-942,-582,1385,-795,-127,-924,-763,-548,1319,-537,53,-801,-691,-613,1257,-388,202,-717,-630,-582,1127,-235,354,-688,-609,-444,1012,-137,496,-670,-611,-307,914,-99,589,-665,-597,-324,953,-133,626,-656,-522,-345,1036,-184
917,-373,122,-66,-42,12,875,-397,101,-213,-198,58,862,-436,22,-366,-316,72,861,-437,-16,-374,-238,150,902,-460,-4,-380,-100,229,947,-553,23,-426,-65,255,1069,-763,-34,-696,15,27,1277,-929,-150,-501,-32,-212,1603,-1026,-145,-391,-145,-667,1745,-775,-2,-796,-862,-1635,1751,-546,124,-1965,-1945,-3010,1576,-664,262,-2698,-1687,-4091,740,-1069,-85,-3000,-192,-4801,-813,-1164,-672,-3370,1741,-5133,-2628,-802,-283,-3426,2684,-3417,-3876,-852,59,-2685,1241,212,-4762,-2327,165,-1331,-892,2425,-4406,-4342,-299,-34,-2971,3673,-3331,-5087,-802,1647,-4072,3459,-2298,-4383,-1533,2736,-4299,1714,-1791,-3593,-1973,2052,-3729,431,-1451,-2803,-2175,1691,-1882,-594,-1275,-2121,-2028,1114,-479,-951,-926,-1708,-1720,185,413,-916,-671,-1445,-1398,-207,1005,-809,-375,-1177,-1120,-655,1255,-741,-162,-1002,-899,-804,1552,-644,19,-813,-763,-784,1769,-599,132,-622,-612,-714,1850,-322,311,-527,-502,-889,1462,-3
915,-290,199,-102,-79,-109,1094,-369,102,-67,-38,-134,1285,-476,-4,-168,-65,-409,1373,-576,-62,-311,-187,-780,1259,-520,-33,-579,-374,-1307,1100,-407,17,-816,-491,-1699,884,-234,122,-1036,-526,-1936,734,-85,227,-1171,-618,-2081,623,114,299,-1290,-873,-2269,612,465,256,-1391,-1223,-2523,576,852,232,-1594,-1035,-2638,264,1017,209,-1761,-84,-2528,-305,1013,249,-2033,1138,-2403,-1222,860,507,-2294,2035,-1684,-2051,476,951,-2167,1667,-45,-2398,-332,1176,-911,144,2362,-2425,-1366,779,562,-2007,3712,-2277,-2135,86,1518,-3605,4201,-2032,-2447,-342,1960,-4451,3477,-1860,-2489,-859,2531,-4918,2319,-1599,-2370,-1387,2538,-4574,1098,-1415,-2053,-1804,1937,-3878,26,-1273,-1606,-1930,1193,-2477,-748,-1100,-1249,-1787,704,-1031,-944,-901,-1017,-1450,38,51,-787,-652,-951,-1139,-270,495,-600,-451,-876,-893,-325,713,-421,-264,-900,-821,-398,529,-374,-71,-890,-850,-332,811,-380,8,-814,-823,-336,1150,-494
724,747,-68,-81,-30,-701,673,818,-38,-104,-76,-957,642,846,-45,-173,-145,-1280,572,907,-54,-238,-146,-1653,425,973,-76,-377,52,-2059,182,1056,-64,-648,404,-2431,-289,1075,-102,-1186,934,-2751,-993,1008,-60,-1816,1621,-2413,-1991,789,241,-2347,1706,-1088,-2572,246,479,-2075,1003,1292,-2901,-921,592,-1265,-649,3205,-2838,-2255,193,-113,-2671,4191,-2338,-2823,-274,681,-3983,3762,-1826,-2784,-718,1241,-4658,2399,-1344,-2457,-1111,2095,-3980,986,-1199,-2167,-1520,2091,-3568,-133,-1087,-1915,-1893,1972,-2705,-925,-997,-1645,-1995,1463,-1569,-1296,-900,-1419,-1891,1075,-704,-1384,-822,-1153,-1634,669,-122,-1206,-691,-978,-1427,210,25,-891,-506,-875,-1222,-153,385,-580,-316,-887,-1165,-618,979,-316,-158,-961,-1082,-798,2074,-287,-49,-883,-894,-549,2815,-210,94,-818,-625,-528,3002,-262,244,-764,-375,-481,2696,-362,388,-659,-147,-400,2128,-490,547,-521,15,-302,1558,-495,656,-397,82,-288,1156,-461
1013,123,86,-217,-119,30,1028,108,86,-158,-64,32,1065,77,82,-120,-95,-32,1109,69,73,-244,-230,-295,1298,85,61,-638,-631,-1010,1523,312,-101,-713,-594,-1961,1456,603,-188,-1062,-316,-3122,1074,698,-102,-1438,221,-3927,442,626,65,-1730,832,-4176,-298,418,90,-2320,1209,-3781,-1548,106,483,-2673,1995,-2111,-2454,-408,932,-1712,302,463,-2683,-1345,705,106,-1764,2576,-2721,-2699,-69,1626,-3467,3707,-2275,-2876,-480,2163,-4369,2778,-1988,-2741,-713,2768,-4949,1617,-1753,-2419,-1106,2892,-4979,350,-1478,-1854,-1363,2273,-4115,-752,-1285,-1679,-1576,1336,-3086,-1231,-1217,-1573,-1860,1372,-1251,-1545,-1199,-1399,-1870,861,10,-1454,-1037,-1206,-1740,237,688,-1177,-880,-1024,-1534,-147,1191,-870,-638,-877,-1287,-496,1276,-560,-407,-808,-1082,-745,1478,-233,-225,-764,-870,-508,1627,42,2,-692,-779,-362,1772,123,177,-671,-672,-229,2008,219,349,-641,-539,-58,2168,155,472,-592,-381,101,2134,101
975,-236,199,-44,-155,-4,986,-218,198,-34,-156,-2,982,-203,208,-26,-113,5,992,-221,224,-22,-112,10,1073,-284,137,-87,-267,-115,1188,-329,14,-142,-377,-270,1418,-413,-138,-105,-447,-466,1669,-428,-189,-86,-343,-840,1845,-456,-65,-455,-456,-2116,1618,-390,129,-894,-657,-3558,1105,-401,280,-1180,-503,-4498,392,-518,21,-1588,-26,-4996,-948,-489,-254,-2401,1164,-4537,-2424,-298,216,-2612,1669,-2345,-3064,-593,386,-1741,95,954,-3209,-1429,189,-377,-1924,2869,-3051,-2364,-395,747,-3558,4070,-2548,-2623,-476,789,-4485,3890,-2161,-2715,-805,1701,-4932,3269,-1748,-2494,-1256,2266,-4572,2297,-1347,-2297,-1721,2175,-3776,1311,-1050,-2025,-2000,1515,-2576,415,-841,-1705,-1981,1135,-1221,-240,-752,-1373,-1652,527,-21,-592,-613,-1156,-1331,140,606,-678,-465,-961,-1007,-110,958,-633,-313,-848,-810,-287,966,-582,-150,-783,-678,-421,815,-502,19,-736,-661,-340,655,-517,152,-630,-690,-126,616,-474
1589,76,-101,-183,-132,-348,1714,116,-46,-425,-618,-1719,1427,250,-81,-800,-907,-3288,994,228,-71,-1191,-561,-4252,274,92,-196,-1590,500,-4600,-808,69,-310,-2127,1528,-4286,-2075,133,-61,-2735,1685,-2722,-2671,-206,167,-2468,984,196,-2770,-794,47,-1594,-262,2581,-2823,-1846,-175,-843,-2055,3938,-2698,-2261,-478,-679,-3523,4136,-2463,-2592,-719,196,-4468,3762,-2246,-2660,-1093,1397,-4967,3050,-1862,-2648,-1606,1603,-5012,1882,-1484,-2388,-1997,1436,-4075,586,-1215,-1931,-2033,1038,-2381,-394,-1057,-1610,-1799,541,-1001,-939,-897,-1312,-1444,179,262,-1016,-760,-1165,-1149,-279,850,-956,-519,-1023,-956,-470,1181,-797,-323,-945,-842,-698,1385,-736,-73,-885,-779,-679,1487,-750,94,-763,-732,-664,1705,-769,258,-693,-661,-550,1744,-647,383,-586,-537,-464,1670,-539,499,-544,-422,-441,1404,-452,620,-501,-342,-314,1267,-281,685,-453,-256,-233,1182,-175,757,-400,-192,-99,1136,-52,804,-362,-142,-13,1133,53
1105,-346,-38,-393,-552,-472,1066,-228,-32,-492,-608,-559,1013,-121,-14,-547,-622,-586,956,-41,4,-459,-483,-511,910,23,-23,-320,-421,-474,923,63,-121,-251,-359,-454,967,89,-223,-155,-135,-376,1077,73,-318,-250,-93,-469,1332,76,-452,-436,-178,-839,1603,159,-542,-880,-476,-1718,1584,282,-492,-1456,-556,-3020,1271,253,-422,-2052,-229,-4012,376,43,-450,-2517,1129,-4284,-1039,-129,-344,-3157,2245,-3944,-2522,-205,392,-3126,1752,-1584,-3094,-738,601,-1988,92,1330,-3290,-2116,320,-183,-2280,3226,-3096,-3104,-252,945,-3761,4059,-2579,-3260,-513,1671,-4544,3148,-1977,-2971,-1095,2499,-4875,1712,-1697,-2656,-1420,2431,-4209,463,-1379,-2340,-1852,2037,-3071,-549,-1211,-2032,-1921,1723,-1488,-1119,-953,-1673,-1798,1106,-192,-1315,-707,-1448,-1521,637,835,-1311,-420,-1257,-1207,261,1555,-1286,-235,-1147,-906,44,1907,-1224,-17,-1040,-626,38,1918,-1126,146,-895,-415,6,1657,-1035,339,-774,-299,-195,1184,-900
936,302,-168,-230,-700,219,1086,307,-189,-325,-898,113,1306,319,-417,-595,-1618,-419,1369,431,-671,-1085,-1674,-1282,1152,506,-691,-1547,-1123,-2132,858,510,-591,-2207,-652,-2853,352,399,-491,-2810,477,-3289,-464,261,-440,-3294,1771,-3260,-1579,120,-181,-3798,2606,-2540,-2409,-140,287,-3680,2068,-618,-2823,-914,662,-2545,553,2087,-2821,-2232,503,-347,-2052,3657,-2670,-3008,-256,1729,-3521,4178,-2163,-3302,-844,2477,-4467,2912,-1806,-2993,-1328,3043,-4628,1530,-1600,-2445,-1730,2768,-3929,166,-1507,-1945,-1959,2083,-2883,-541,-1350,-1537,-1964,1326,-1417,-955,-1202,-1250,-1768,1004,9,-994,-975,-1073,-1469,297,931,-814,-713,-982,-1199,-102,1377,-518,-449,-859,-960,-229,1673,-338,-221,-749,-815,-202,1665,-176,12,-655,-712,-182,1590,-69,197,-585,-637,-92,1443,31,346,-540,-599,-91,1275,72,481,-538,-556,-17,1215,134,558,-537,-502,98,1222,184,617,-560,-453,154,1054,220,686,-590,-455,148,831,177
804,378,-292,-652,-334,-709,769,484,-322,-713,-302,-890,760,622,-328,-837,-235,-1135,757,772,-323,-1019,-240,-1462,707,882,-296,-1392,-163,-2040,520,940,-228,-1753,261,-2500,77,866,-162,-2268,1120,-2760,-552,694,-120,-2748,2158,-2480,-1342,354,-40,-3253,2997,-1407,-1973,123,206,-3022,2923,40,-2261,-196,343,-2440,1600,1540,-2432,-739,393,-1444,14,3196,-2505,-1882,117,104,-2175,4287,-2298,-2623,-385,643,-3595,4610,-1647,-2967,-774,1524,-4389,3463,-1013,-2732,-1347,2364,-4011,2175,-683,-2386,-1672,2172,-3106,1141,-489,-1947,-2026,1413,-2277,204,-466,-1557,-2147,942,-1188,-282,-413,-1165,-1995,398,-198,-438,-336,-934,-1673,-42,562,-383,-207,-818,-1297,-362,966,-251,-54,-812,-1027,-443,1100,-98,121,-755,-839,-299,1168,-64,225,-660,-743,-245,1248,-111,317,-537,-653,-163,1304,-111,416,-458,-594,-135,1358,-58,520,-425,-533,-82,1423,43,635,-401,-472,-196,1481,68,708,-378,-350,-146,1720,138
943,-297,-91,26,-234,63,912,-263,-111,71,-218,85,914,-283,-145,46,-268,117,973,-364,-194,86,-299,207,1119,-500,-285,48,-503,102,1422,-659,-497,-55,-766,-306,1762,-729,-766,-326,-885,-1205,1941,-706,-928,-1296,-1153,-2433,1825,-753,-859,-2587,-971,-3625,1155,-868,-699,-2951,496,-4025,-49,-759,-542,-2934,1970,-4028,-1169,-520,-329,-3151,2367,-3607,-2166,-407,242,-3085,2160,-1798,-2842,-803,691,-1372,-54,1315,-3175,-1995,252,184,-2320,3085,-2803,-2832,-418,1602,-3784,3541,-2264,-3056,-1034,2822,-4527,3255,-1541,-2943,-1823,3090,-4484,2152,-932,-2551,-2408,2682,-3478,896,-651,-1937,-2400,1597,-1753,-218,-501,-1537,-2078,790,-436,-710,-376,-1143,-1651,226,539,-896,-216,-919,-1318,-105,814,-814,-28,-742,-1078,-238,888,-648,117,-630,-903,-252,823,-463,241,-554,-819,-224,715,-371,359,-491,-772,-192,634,-306,464,-446,-754,-178,651,-293,543,-423,-697,-104,743,-189,607,-406,-651,-80,728,-156
1231,-705,-66,-266,10,-456,1463,-669,-137,-243,-412,-1072,1526,-458,-203,-343,-733,-1814,1503,-271,-276,-669,-1052,-2522,1455,-116,-316,-1208,-1077,-3180,1294,-119,-355,-1695,-611,-3609,832,-159,-333,-2010,506,-3815,192,-158,-345,-2126,1548,-3750,-669,-95,-323,-2357,2319,-3434,-1615,-106,-70,-2399,2365,-2316,-2364,-359,362,-1564,1088,-143,-2757,-1098,479,69,-1082,2155,-2755,-2723,-413,2118,-3079,3517,-2577,-3174,-963,2900,-4136,2542,-2363,-3030,-1717,3765,-4784,594,-2035,-2364,-2074,3506,-3938,-476,-1836,-1847,-2075,2451,-2650,-929,-1624,-1431,-1927,1628,-978,-1092,-1471,-1151,-1656,1093,115,-1005,-1226,-904,-1399,368,541,-689,-1000,-821,-1219,-83,840,-401,-807,-707,-1056,-318,1007,-173,-652,-643,-968,-541,1148,-19,-501,-601,-902,-666,1257,99,-339,-535,-891,-763,1468,65,-232,-421,-865,-852,1741,-117,-93,-312,-825,-969,1539,-145,124,-236,-859,-865,1258,-56,291,-156,-878,-769,1241,108,385,-110,-818,-634,1330,248
1511,-452,-906,-1055,-692,-736,1615,-398,-1118,-1813,-912,-1544,1537,-398,-1202,-2829,-566,-2121,1138,-435,-972,-3299,553,-2369,445,-435,-668,-3359,1952,-2492,-298,-363,-392,-3233,3052,-2351,-1113,-263,-12,-3121,3294,-1964,-1950,-325,220,-2898,2705,-809,-2578,-537,338,-2330,1713,1054,-3143,-1173,369,-1584,-677,3010,-3866,-2579,27,-254,-2698,4100,-4027,-3692,-863,1292,-3999,4535,-3304,-3728,-1691,2177,-4686,3381,-2546,-3403,-2191,1921,-4678,1776,-1959,-2853,-2297,1668,-3213,393,-1561,-2226,-1964,1236,-1546,-512,-1196,-1705,-1581,731,-663,-766,-827,-1335,-1228,263,-139,-700,-536,-1122,-1008,26,149,-570,-296,-1035,-819,-30,429,-463,-116,-969,-702,-48,735,-466,-22,-907,-622,-26,974,-478,107,-808,-590,-76,1145,-460,217,-766,-560,-143,1340,-390,337,-745,-512,-161,1594,-265,428,-705,-406,-75,1882,-159,531,-644,-252,-20,1958,-105,639,-621,-125,-154,1809,-62,716,-620,-7,-194,1659,14,756,-617,86,-207,1497,18
1274,-163,-701,-941,-1183,-1501,1300,-26,-834,-1268,-1031,-1766,1322,92,-958,-2059,-1061,-2180,1257,53,-950,-2927,-469,-2393,774,-60,-757,-3186,1098,-2354,72,-153,-546,-3099,2636,-2272,-808,-148,-230,-2877,3560,-2198,-1572,-67,200,-2458,3272,-1371,-2038,-248,586,-1356,1846,658,-2180,-786,563,264,-671,2711,-2332,-1698,76,1768,-2687,3921,-2210,-2475,-718,2542,-3992,3477,-2201,-2514,-1268,3085,-4683,2397,-1998,-2339,-1889,3282,-4713,1196,-1836,-1964,-2192,2582,-4378,-41,-1545,-1448,-2101,1969,-2719,-829,-1363,-1110,-1708,1353,-1012,-1099,-1211,-919,-1221,786,27,-922,-1043,-838,-925,362,235,-599,-839,-820,-801,9,258,-326,-723,-814,-723,-97,430,-187,-619,-768,-678,-145,582,-62,-531,-704,-664,-155,828,100,-464,-680,-656,-185,1052,210,-359,-683,-669,-33,1258,257,-261,-679,-688,140,1432,233,-153,-689,-692,287,1532,199,-33,-699,-695,373,1561,149,102,-704,-675,428,1614,96,239,-665,-652,473,1722,73
861,-476,-295,-157,-357,-104,908,-500,-360,-124,-515,-140,957,-527,-503,-67,-708,-212,1098,-563,-766,-122,-910,-348,1312,-611,-1099,-613,-869,-701,1550,-675,-1411,-1408,-750,-1268,1663,-799,-1370,-2258,-84,-1855,1480,-927,-970,-2598,998,-2421,882,-961,-598,-2536,2011,-3117,20,-691,-410,-2471,2699,-3497,-745,-404,-231,-2263,3085,-2875,-1525,-303,257,-1470,2948,-1024,-1985,-541,570,43,1013,914,-2177,-1316,209,2192,-1665,2854,-2443,-2004,-269,3409,-3289,3835,-2642,-2401,-901,3192,-4335,3158,-2609,-2357,-1297,2870,-4878,1801,-2391,-2136,-1485,2586,-4200,455,-2243,-1814,-1424,2285,-2867,-494,-2058,-1384,-1215,1703,-1478,-1028,-1821,-1023,-889,976,-655,-840,-1527,-790,-583,501,-191,-470,-1240,-614,-278,190,21,-56,-1022,-541,-131,37,80,244,-874,-526,-28,31,83,341,-811,-509,-35,162,64,238,-804,-515,-65,236,83,59,-799,-551,-89,358,193,-169,-786,-548,-112,377,430,-379,-760,-561,-132,277,739,-476
1452,-258,-365,-799,-930,-2193,1340,-67,-435,-1427,-943,-3251,1081,-19,-487,-2103,-439,-3813,432,-139,-536,-2690,727,-3871,-461,-75,-382,-3021,1900,-3395,-1483,103,-103,-3106,2217,-2513,-2318,71,322,-2914,1560,-827,-2829,-463,716,-1528,-371,1875,-3086,-1606,320,260,-2504,3421,-2891,-2429,-299,1170,-3888,3998,-2548,-2709,-703,1562,-4621,3585,-2001,-2680,-1257,2243,-4805,2595,-1560,-2384,-1777,1735,-4459,1147,-1252,-1999,-2069,864,-3429,-127,-1073,-1533,-2043,765,-1508,-944,-967,-1127,-1796,410,-216,-1112,-756,-873,-1461,-207,463,-901,-544,-731,-1210,-481,837,-586,-337,-628,-990,-792,870,-295,-148,-574,-879,-1008,738,-127,27,-545,-817,-883,688,0,155,-485,-793,-531,722,54,253,-413,-799,-255,715,43,340,-367,-804,-113,692,68,451,-355,-800,89,835,112,540,-369,-758,241,1093,128,603,-391,-703,299,1246,103,668,-418,-640,295,1341,71,730,-399,-592,254,1348,59,768,-406,-526,-181,1297,21
1311,-13,-401,-657,-658,-1574,1205,127,-435,-805,-693,-2098,1076,254,-468,-1053,-611,-2576,867,326,-451,-1456,-293,-3055,576,275,-466,-1983,312,-3453,-79,179,-418,-2307,1601,-3296,-816,177,-275,-2407,2248,-2915,-1790,270,-34,-2532,1873,-2033,-2502,-125,286,-1904,652,544,-2749,-905,279,-501,-1468,2624,-2639,-2520,-371,1543,-3299,3796,-2615,-2918,-725,2324,-4268,2392,-2647,-2914,-1351,3379,-4891,1052,-2485,-2444,-1753,3404,-4822,-195,-2272,-1905,-1761,2598,-3515,-854,-2095,-1532,-1571,2027,-2057,-1086,-1886,-1151,-1264,1418,-827,-1031,-1643,-915,-958,805,-147,-696,-1380,-742,-648,386,211,-246,-1140,-644,-481,144,321,73,-950,-586,-356,-8,421,271,-835,-565,-313,-21,475,254,-783,-541,-311,73,446,169,-745,-527,-364,134,313,114,-721,-531,-410,156,242,72,-691,-539,-445,102,251,-37,-704,-527,-422,110,342,-139,-743,-527,-405,70,241,-113,-731,-560,-442,65,115,-49,-695,-582,-505,90,111,-80
878,-585,-118,33,107,427,869,-601,-104,34,74,383,853,-624,-93,-14,19,299,812,-617,-94,-4,-186,315,822,-669,-176,-128,-545,376,873,-771,-283,-297,-723,284,940,-862,-391,-438,-740,124,993,-955,-476,-620,-674,-151,1116,-1108,-634,-1051,-728,-639,1242,-1281,-867,-1735,-696,-1387,1216,-1439,-1041,-2912,98,-2649,608,-1492,-821,-3160,1829,-3769,-319,-1067,-558,-2402,2991,-4446,-1342,-440,-480,-2442,3279,-4638,-2256,15,-113,-2750,3370,-3340,-2823,-7,361,-2193,1294,-107,-3223,-805,329,-858,-1253,2234,-3888,-2034,-46,335,-3177,3740,-3227,-2403,-600,124,-4195,4339,-2775,-2406,-797,605,-4656,3555,-2422,-2312,-1191,498,-4625,2379,-2059,-2084,-1460,520,-3785,937,-1901,-1865,-1459,472,-2954,318,-1566,-1400,-1283,218,-1313,-568,-1181,-1085,-1074,-117,-60,-817,-923,-943,-825,-316,624,-741,-649,-843,-639,-309,839,-568,-440,-785,-564,-277,801,-449,-263,-738,-575,-167,773,-356,-159,-717,-571,-73,839,-263
862,-493,-40,-293,32,-206,895,-484,-52,-280,29,-214,950,-468,-82,-344,-11,-155,1000,-491,-92,-327,-19,-214,1092,-516,-143,-293,-68,-397,1227,-559,-191,-232,-95,-622,1432,-602,-274,-176,-166,-1054,1672,-599,-298,-347,-377,-1854,1798,-562,-299,-878,-686,-2983,1595,-580,-223,-1386,-179,-4143,809,-600,-242,-1630,1020,-4717,-416,-468,-384,-2108,2233,-4911,-1683,-208,-88,-2355,2994,-3829,-2389,-245,339,-1739,1306,-1246,-2460,-640,267,-359,-933,1248,-2273,-1714,-284,1816,-2987,3179,-2239,-2005,-495,1943,-4081,3539,-2348,-2212,-804,2013,-4785,2687,-2421,-2408,-1158,2910,-5158,1425,-2339,-2119,-1570,3133,-5070,149,-2109,-1711,-1797,2156,-3820,-555,-1954,-1409,-1653,1272,-1700,-1043,-1857,-1079,-1235,586,31,-1201,-1609,-836,-893,-24,559,-863,-1255,-712,-663,-454,560,-362,-965,-658,-573,-535,534,-155,-761,-614,-535,-463,530,-137,-646,-566,-551,-327,525,-181,-565,-503,-619,-193,507,-139,-496,-501,-691,-275,457,-98
589,-640,-55,-246,0,-55,633,-650,-67,-222,-44,96,731,-720,-109,-255,-131,152,833,-791,-180,-291,-317,96,907,-844,-296,-413,-800,0,1071,-925,-716,-645,-1182,-175,1305,-1132,-1252,-1042,-1097,-509,1484,-1348,-1742,-1967,-512,-1112,1441,-1614,-1836,-2727,359,-1587,965,-1756,-1511,-3152,1566,-2098,327,-1679,-1139,-3362,2250,-2377,-294,-1360,-804,-2868,2815,-2064,-846,-1062,-511,-2336,3325,-1670,-1858,-762,351,-1522,3519,-1202,-2468,-595,966,-363,1074,-445,-2846,-743,672,1170,-1758,792,-3066,-1491,-204,2979,-3464,2564,-2874,-2209,-1486,2926,-4367,2952,-2058,-2583,-2411,2792,-4392,2276,-1424,-2214,-2847,2409,-3772,1414,-1038,-1583,-2914,1973,-2372,626,-798,-1070,-2681,1468,-1230,286,-617,-748,-2168,678,-188,111,-492,-651,-1647,190,341,85,-377,-613,-1187,-38,595,50,-284,-540,-906,-54,580,17,-197,-470,-752,24,469,18,-127,-443,-731,112,360,42,-85,-480,-777,168,245,52,-57,-524,-857,187,155,25
445,-450,-357,-359,-620,691,358,-487,-448,-322,-957,898,251,-641,-774,-258,-1546,1212,204,-710,-1457,-308,-1712,1297,216,-1059,-2280,-590,-1161,1241,123,-1499,-2835,-1381,91,882,-70,-1951,-2817,-2177,1521,344,-408,-2232,-2368,-2923,3055,-373,-726,-2152,-1793,-3179,4120,-987,-1135,-1745,-1150,-2844,4823,-1262,-1400,-1320,-598,-2418,4952,-1272,-1720,-918,145,-1623,4236,-1269,-2014,-638,673,-657,1837,-962,-2323,-649,698,981,-921,-99,-2565,-1100,275,2581,-2844,1149,-2783,-1887,-484,3538,-4082,2283,-2617,-2314,-1236,3222,-4785,1719,-2517,-2359,-1913,3136,-5134,964,-2201,-2059,-2362,2599,-4251,402,-1909,-1761,-2290,1965,-2521,126,-1685,-1460,-1954,1392,-977,-164,-1462,-1143,-1693,817,-293,-360,-1183,-944,-1450,345,284,-344,-936,-894,-1228,113,944,-312,-746,-907,-922,32,1366,-455,-563,-878,-680,94,1349,-666,-339,-921,-538,126,1085,-1043,-184,-955,-501,486,1125,-1353,-47,-960,-485,1011,1207,-1623,47,-900,-423,1720,1419,-1656
457,799,-36,-172,18,-102,502,847,-29,-211,64,-192,508,868,-8,-308,103,-323,549,978,25,-230,-18,-348,651,1135,-35,-116,-254,-199,949,1469,-250,89,-419,130,1153,1603,-556,638,-933,616,1385,1725,-973,1762,-1478,1083,1526,1817,-913,2546,-988,1349,1362,1823,-415,3260,-128,1832,854,1562,-31,3418,231,2422,255,998,26,3610,-228,2616,-140,791,-5,3581,45,1775,-583,607,291,2536,1565,784,-1044,411,948,1629,1190,-81,-1187,488,1307,270,-411,-650,-1336,568,1136,-1164,-2021,-1151,-1611,1009,552,-2974,-3210,-1857,-1690,1894,-574,-3752,-3897,-2516,-1547,2599,-1588,-3414,-3675,-2281,-1164,2619,-2167,-3233,-2691,-1544,-847,2060,-2197,-2266,-1566,-764,-616,1593,-1837,-1364,-558,-1,-438,1294,-1453,-864,343,172,-352,1095,-1026,-313,721,304,-230,974,-772,-21,704,357,-124,882,-612,32,621,340,-9,862,-570,43,613,387,51,848,-510,37,560,333,123,854,-519,-37,494,348
71,991,15,193,-293,-619,59,1069,-59,414,-313,-512,58,1232,-207,613,-286,-302,69,1330,-322,709,-244,-60,88,1498,-476,1015,-137,396,196,1602,-654,1275,-96,952,418,1585,-1024,1898,55,1412,709,1703,-1414,3146,699,1839,659,1941,-1359,3402,2136,2129,151,2053,-970,3186,3262,2922,-362,1713,-610,2806,3086,3537,-911,1219,-239,2625,2617,3140,-1486,834,649,1791,1707,2070,-1860,725,1157,-179,-930,490,-2017,866,657,-2539,-2952,-1293,-1832,1284,9,-3591,-3743,-2469,-1436,1955,-772,-3566,-3878,-2588,-945,2273,-1660,-3416,-3025,-2150,-508,2253,-1905,-2952,-1643,-1455,-324,1914,-1792,-2643,-527,-809,-213,1531,-1455,-2051,451,-238,-138,1268,-1116,-1395,975,85,-36,1131,-789,-838,1273,310,54,1013,-592,-524,1153,370,177,925,-487,-103,730,391,294,925,-442,102,504,388,350,928,-396,122,474,354,359,921,-346,71,472,327,353,912,-319,36,476,324,350,888,-288,-50,456,320
378,878,-311,112,-316,-229,376,910,-343,61,-247,-209,339,936,-391,31,-202,-140,333,1025,-585,-58,-507,9,380,1161,-972,145,-840,25,476,1370,-1317,720,-935,186,586,1508,-1597,1792,-765,275,638,1611,-1617,2808,-408,332,673,1661,-1492,3681,285,511,394,1550,-1232,3875,1544,748,-195,1332,-907,3855,2591,1036,-698,1177,-569,3907,2951,927,-1029,954,117,3059,3140,390,-1177,752,804,1443,1933,-103,-1113,654,950,-402,627,-369,-1086,627,713,-1996,-1009,-878,-1005,885,158,-3385,-2293,-1869,-617,1494,-1011,-4061,-2865,-2617,-226,1904,-1741,-3667,-2369,-2571,178,2130,-2075,-2991,-1521,-2061,325,1883,-1906,-2790,-380,-1436,377,1463,-1512,-1893,240,-755,357,1228,-1132,-1098,679,-159,338,1049,-827,-722,705,198,338,905,-630,-441,444,425,366,857,-525,-257,214,452,393,848,-452,-220,177,367,403,853,-408,-199,174,297,413,864,-387,-189,205,247,443,899,-381,-136,328,192
254,1020,-410,-39,-1001,-321,221,1053,-492,87,-785,-208,214,1137,-587,266,-586,-75,166,1432,-706,495,-503,246,144,1463,-890,488,-461,344,249,1502,-1133,1448,-599,436,444,1567,-1380,2410,-376,448,644,1711,-1417,3491,342,575,582,1688,-1175,3539,1683,981,82,1401,-823,2911,3130,1548,-441,1160,-530,2334,3447,2054,-741,910,-309,1843,3150,2187,-1100,584,-17,962,3298,2055,-1509,29,459,348,2288,1371,-1616,-27,616,-661,19,-499,-1686,342,392,-2243,-1408,-2538,-1572,1210,61,-3578,-1442,-3918,-1164,2363,-102,-2681,-1465,-4576,-614,3178,-249,-3310,-605,-4492,-326,3158,-147,-2538,-436,-3212,-110,2797,-255,-1883,-542,-1579,10,2172,-402,-1001,-678,-267,74,1684,-370,-348,-31,354,63,1323,-257,-295,617,438,26,1119,-138,-151,684,376,65,1042,-30,25,562,160,75,1018,52,26,430,105,87,1017,119,-21,363,49,86,1013,154,-127,333,41,96,998,162,-264,317,70
