t0_Ax,t0_Ay,t0_Az,t0_gyro_x,t0_gyro_y,t0_gyro_z,t1_Ax,t1_Ay,t1_Az,t1_gyro_x,t1_gyro_y,t1_gyro_z,t2_Ax,t2_Ay,t2_Az,t2_gyro_x,t2_gyro_y,t2_gyro_z,t3_Ax,t3_Ay,t3_Az,t3_gyro_x,t3_gyro_y,t3_gyro_z,t4_Ax,t4_Ay,t4_Az,t4_gyro_x,t4_gyro_y,t4_gyro_z,t5_Ax,t5_Ay,t5_Az,t5_gyro_x,t5_gyro_y,t5_gyro_z,t6_Ax,t6_Ay,t6_Az,t6_gyro_x,t6_gyro_y,t6_gyro_z,t7_Ax,t7_Ay,t7_Az,t7_gyro_x,t7_gyro_y,t7_gyro_z,t8_Ax,t8_Ay,t8_Az,t8_gyro_x,t8_gyro_y,t8_gyro_z,t9_Ax,t9_Ay,t9_Az,t9_gyro_x,t9_gyro_y,t9_gyro_z,t10_Ax,t10_Ay,t10_Az,t10_gyro_x,t10_gyro_y,t10_gyro_z,t11_Ax,t11_Ay,t11_Az,t11_gyro_x,t11_gyro_y,t11_gyro_z,t12_Ax,t12_Ay,t12_Az,t12_gyro_x,t12_gyro_y,t12_gyro_z,t13_Ax,t13_Ay,t13_Az,t13_gyro_x,t13_gyro_y,t13_gyro_z,t14_Ax,t14_Ay,t14_Az,t14_gyro_x,t14_gyro_y,t14_gyro_z,t15_Ax,t15_Ay,t15_Az,t15_gyro_x,t15_gyro_y,t15_gyro_z,t16_Ax,t16_Ay,t16_Az,t16_gyro_x,t16_gyro_y,t16_gyro_z,t17_Ax,t17_Ay,t17_Az,t17_gyro_x,t17_gyro_y,t17_gyro_z,t18_Ax,t18_Ay,t18_Az,t18_gyro_x,t18_gyro_y,t18_gyro_z,t19_Ax,t19_Ay,t19_Az,t19_gyro_x,t19_gyro_y,t19_gyro_z,t20_Ax,t20_Ay,t20_Az,t20_gyro_x,t20_gyro_y,t20_gyro_z,t21_Ax,t21_Ay,t21_Az,t21_gyro_x,t21_gyro_y,t21_gyro_z,t22_Ax,t22_Ay,t22_Az,t22_gyro_x,t22_gyro_y,t22_gyro_z,t23_Ax,t23_Ay,t23_Az,t23_gyro_x,t23_gyro_y,t23_gyro_z,t24_Ax,t24_Ay,t24_Az,t24_gyro_x,t24_gyro_y,t24_gyro_z,t25_Ax,t25_Ay,t25_Az,t25_gyro_x,t25_gyro_y,t25_gyro_z,t26_Ax,t26_Ay,t26_Az,t26_gyro_x,t26_gyro_y,t26_gyro_z,t27_Ax,t27_Ay,t27_Az,t27_gyro_x,t27_gyro_y,t27_gyro_z,t28_Ax,t28_Ay,t28_Az,t28_gyro_x,t28_gyro_y,t28_gyro_z,t29_Ax,t29_Ay,t29_Az,t29_gyro_x,t29_gyro_y,t29_gyro_z
399,-848,305,301,-946,78,396,-858,118,274,-756,119,405,-885,5,159,-479,106,418,-890,-74,-31,-41,12,428,-889,-68,-240,356,-67,433,-872,40,-401,685,-104,446,-869,156,-551,771,-161,469,-882,250,-570,832,-147,484,-901,323,-573,783,-198,480,-900,350,-519,730,-245,470,-867,398,-491,650,-271,462,-814,436,-458,578,-263,446,-726,529,-415,494,-147,372,-671,642,-512,376,-80,232,-844,873,-496,18,72,69,-1157,1003,-87,-567,192,-149,-1607,988,622,-1652,222,-347,-1856,797,1395,-2716,-54,-511,-1890,423,2027,-3925,-544,-552,-1751,-5,2491,-4297,-975,-503,-1337,-278,2449,-4089,-1098,-446,-1111,-452,2537,-3440,-845,-423,-882,-774,2420,-2683,-367,-401,-860,-1142,1979,-1311,283,-476,-1057,-1320,1031,557,691,-750,-1760,-1134,-438,2655,554,-1052,-2418,-728,-903,3898,-133,-1362,-2819,-361,-1787,4645,-1649,-1315,-3019,-196,-2334,4858,-2804,-1058,-3263,-88,-3192,4668,-4039
603,-694,289,-157,-10,82,599,-703,229,-196,-38,139,596,-794,216,-243,61,150,575,-838,217,-186,117,166,571,-888,211,-171,129,132,576,-867,206,-134,127,80,574,-844,221,-156,119,50,580,-832,244,-124,114,33,594,-815,273,-90,106,11,615,-795,329,-62,136,22,618,-731,437,-70,192,-6,544,-700,556,-154,203,-70,307,-833,758,-195,-12,-113,55,-1196,943,170,-751,-67,-189,-1526,845,866,-1962,-285,-358,-1716,521,1835,-3333,-514,-543,-1710,136,2358,-4242,-637,-595,-1460,-367,2050,-4713,-642,-583,-1158,-588,1771,-4051,-529,-604,-949,-740,1758,-3281,-190,-668,-837,-884,1666,-2462,94,-704,-892,-1125,1648,-1256,478,-795,-1144,-1336,1159,331,668,-911,-1784,-1370,137,2307,362,-1172,-2284,-1099,-352,3689,-353,-1363,-2602,-690,-1539,4576,-1612,-1194,-2773,-336,-2355,4780,-2687,-925,-2812,-151,-2954,4558,-3603,-735,-2651,235,-2967,3956,-3934,-777,-2271,706,-2635,3072,-3938
656,-864,44,-65,184,-339,653,-813,49,-62,154,-383,653,-774,70,-65,94,-359,666,-732,68,-30,109,-315,674,-690,103,-99,58,-300,719,-649,154,-89,116,-227,753,-585,241,-89,157,-175,715,-542,400,-164,205,-174,509,-545,649,-234,-97,-354,277,-676,757,53,-809,-277,101,-1017,661,732,-1919,-65,-62,-1289,372,1432,-3145,108,-276,-1417,-2,1942,-4017,121,-373,-1371,-398,1676,-4405,101,-448,-1316,-546,1209,-3888,-71,-599,-1317,-679,1191,-3485,-198,-705,-1149,-955,1306,-2156,-115,-844,-1075,-1154,934,-514,-60,-1030,-1294,-1279,178,1388,-34,-1143,-1668,-1259,-360,3021,-121,-1291,-2164,-1063,-1196,4199,-624,-1203,-2647,-946,-2304,4822,-1580,-1022,-3055,-705,-3096,5129,-2757,-782,-3128,-386,-3303,4777,-3634,-888,-2960,190,-3173,4186,-3988,-1148,-2356,921,-2258,3060,-3803,-1093,-1582,1077,-909,1687,-3056,-772,-785,863,48,520,-2203,-451,-214,691,330,48,-1665,-205,201,649,307,-39,-1070
546,-742,211,-140,242,-193,577,-745,235,-80,172,-115,589,-728,265,12,178,-13,601,-714,297,29,134,68,599,-730,335,56,106,143,600,-711,391,94,97,247,538,-726,541,5,44,297,376,-891,804,-64,-257,230,150,-1141,975,196,-1048,68,-73,-1321,861,747,-1996,71,-218,-1391,514,1188,-3102,-85,-223,-1332,-13,1255,-3575,-433,-162,-1106,-473,1325,-3119,-467,-75,-869,-905,1334,-2436,-317,-12,-691,-1311,1150,-1348,-24,31,-778,-1670,518,206,220,-94,-1200,-1706,-272,1574,210,-421,-1728,-1525,-1139,2999,-159,-768,-2074,-1201,-1962,3901,-722,-915,-2320,-937,-2707,4322,-1230,-891,-2507,-756,-3133,4364,-1654,-745,-2422,-556,-3328,4026,-1902,-703,-2264,-285,-3214,3749,-1757,-692,-2048,204,-2586,3334,-1383,-595,-1737,559,-1837,2503,-1107,-456,-1379,722,-1116,1613,-664,-261,-1126,839,-609,983,-258,-18,-938,841,-227,484,-11,278,-799,705,30,89,157,420,-764,606,173,1,278
645,-755,31,83,7,125,633,-794,68,129,66,215,618,-821,89,202,88,255,594,-840,115,219,-10,229,582,-850,120,257,-144,228,581,-840,126,230,-282,143,577,-836,114,235,-320,112,557,-836,108,215,-313,84,538,-833,89,196,-317,46,514,-827,74,195,-246,64,528,-801,94,152,-146,67,532,-795,169,86,-8,99,481,-836,325,30,24,149,353,-968,514,1,-306,0,241,-1142,557,427,-1172,-75,122,-1182,395,832,-2222,-133,48,-1183,41,1209,-3086,-146,38,-1114,-454,1447,-3185,-197,172,-1010,-1058,1124,-2012,-114,169,-1047,-1414,579,-293,-116,27,-1280,-1568,-407,1705,-329,-166,-1588,-1401,-1334,3213,-721,-397,-1888,-1055,-2354,4233,-1516,-402,-2029,-654,-2765,4396,-2057,-449,-2124,-188,-2682,4182,-2235,-421,-1897,246,-1941,3385,-2159,-462,-1508,578,-1306,2490,-2045,-402,-1072,771,-574,1453,-1531,-248,-756,820,-151,616,-946,24,-559,783,279,-34,-221
416,-943,-81,95,-141,-81,460,-911,-101,34,-27,-115,485,-895,-71,-31,108,-97,510,-905,-24,-93,212,-84,506,-900,19,-124,255,-116,493,-876,87,-147,231,-145,509,-849,170,-138,198,-114,549,-810,275,-142,139,-127,543,-758,377,-209,68,-229,468,-754,447,-252,28,-303,312,-831,484,-340,-136,-399,71,-965,513,-112,-585,-205,-193,-1029,419,48,-1704,-286,-387,-1153,68,557,-3054,-190,-621,-1179,-331,905,-4111,-153,-727,-1179,-624,768,-4716,-272,-667,-1124,-790,802,-4313,-235,-704,-1062,-891,1183,-3241,-94,-775,-1036,-1106,1725,-1914,81,-745,-1041,-1402,1824,-208,-45,-909,-1190,-1474,1535,2183,-556,-1285,-1465,-1442,870,3615,-1337,-1708,-1672,-1363,-114,4537,-1987,-1650,-1650,-1121,-785,5020,-2132,-1374,-1497,-666,-978,4540,-1805,-1155,-1331,-366,-826,3452,-1279,-906,-1214,-79,-400,2220,-513,-723,-1096,25,-382,1002,-30,-553,-1070,124,184,153,383,-270,-998,133,135,-562,355
270,-953,-19,-50,-144,39,305,-972,-7,-71,-26,50,321,-980,18,-100,82,34,325,-988,51,-123,166,-6,318,-993,92,-106,224,-23,300,-994,155,-93,293,-32,269,-1006,272,-52,287,-15,252,-1033,397,-18,224,-7,196,-1159,595,30,108,-7,68,-1351,823,218,-191,-78,-166,-1634,916,673,-909,-220,-422,-1782,797,1124,-1818,-541,-661,-1743,474,1590,-2892,-922,-812,-1573,34,1941,-3666,-1073,-773,-1260,-467,2048,-3836,-935,-551,-853,-853,1780,-3165,-601,-193,-612,-1297,1586,-2123,-160,154,-490,-1611,1082,-598,61,354,-653,-1712,273,921,-50,382,-1074,-1543,-763,2400,-574,357,-1449,-1329,-1491,3247,-1141,154,-1785,-978,-1876,3844,-1591,0,-2001,-612,-1932,3862,-1993,-139,-2079,-259,-1867,3588,-2436,-363,-2012,135,-1562,3228,-2554,-615,-1711,559,-1202,2543,-2549,-781,-1336,916,-741,1692,-2177,-718,-946,1012,-297,788,-1662,-476,-620,957,69,15,-909,-202,-454,868,310,-498,-299
452,-902,-22,-58,-82,-38,468,-898,-17,-70,-8,-23,478,-900,1,-105,39,-47,481,-897,26,-89,102,-32,481,-900,68,-90,127,-23,499,-914,139,-51,159,-7,496,-889,228,-25,177,-58,357,-911,375,-61,157,-167,144,-1084,569,-35,-136,-205,-119,-1425,677,508,-1230,-268,-344,-1545,398,1325,-2808,-288,-546,-1458,-136,1787,-4061,-370,-443,-1238,-705,1746,-4250,-431,-370,-1061,-1000,1689,-3203,-253,-217,-978,-1380,1263,-1894,-267,-177,-1108,-1618,422,438,-272,-369,-1312,-1597,-556,2534,-539,-618,-1604,-1190,-1648,3922,-856,-811,-1825,-656,-2150,4575,-1225,-874,-1813,8,-1985,3963,-1390,-706,-1544,409,-1352,2700,-1184,-481,-1259,638,-898,1665,-920,-202,-1003,697,-435,749,-605,35,-837,654,-140,154,-350,248,-743,546,99,-281,-91,383,-706,446,241,-494,103,493,-705,338,301,-632,233,572,-732,266,341,-700,325,650,-768,187,400,-773,383,710,-815,110,438,-728,409
425,-1126,399,230,39,47,292,-1135,426,453,-515,-239,175,-1042,323,656,-989,-439,95,-873,174,744,-1355,-459,118,-762,18,646,-1496,-270,207,-707,-82,618,-1320,32,252,-714,-122,380,-1261,141,302,-817,-91,254,-1173,342,276,-972,-23,192,-1360,334,260,-1079,-88,192,-1978,128,334,-1076,-284,417,-2027,85,292,-988,-355,350,-2004,-35,290,-965,-468,331,-1924,-48,351,-954,-611,630,-925,59,339,-892,-579,383,-405,97,289,-930,-542,125,-585,-18,203,-910,-715,545,-80,277,69,-988,-1030,503,650,411,-181,-1393,-1478,183,2271,186,-655,-2003,-1843,-398,3668,-779,-1180,-2553,-1726,-1495,4567,-2278,-1225,-2824,-1302,-1801,5002,-3093,-1185,-2881,-768,-1752,4674,-3697,-1313,-2635,-115,-1483,3910,-3861,-1296,-1987,472,-649,2512,-3300,-971,-1168,612,174,1049,-2399,-586,-563,581,612,161,-1552,-274,-152,586,707,-235,-555,1,-31,609,679,-484,303,251,-40,592,775,-764,1044
68,-939,-647,-10,-1481,-77,164,-926,-736,29,-1143,-25,191,-904,-732,133,-812,49,228,-905,-703,122,-642,82,266,-904,-664,108,-423,113,282,-913,-581,18,-203,149,284,-944,-486,-45,-67,145,251,-978,-365,-16,-33,76,205,-979,-289,110,-127,22,129,-972,-249,257,-400,60,67,-959,-294,359,-768,105,-3,-924,-461,405,-966,168,-161,-928,-629,723,-733,462,-267,-1036,-951,939,-76,625,-513,-1337,-1294,894,1594,196,-936,-1778,-1490,643,3243,-664,-1392,-2283,-1636,-319,4325,-2137,-1514,-2633,-1473,-1108,4898,-3516,-1451,-2628,-1000,-1567,5043,-4446,-1467,-2490,-418,-1646,4473,-4442,-1569,-2064,396,-939,3214,-3547,-1294,-1411,614,-40,1537,-2435,-768,-760,529,427,163,-1465,-326,-328,479,578,-292,-737,15,-79,537,526,-358,-110,198,6,620,456,-375,358,327,40,648,537,-588,735,482,24,535,600,-984,1061,698,-133,339,701,-1059,1498,898,-357,198,724,-852,1724
659,-780,-47,-143,-81,8,680,-772,-6,-133,-126,39,666,-755,44,-108,-194,8,615,-745,99,-76,-292,30,539,-749,172,6,-476,103,440,-771,181,149,-776,179,361,-833,108,209,-1110,254,300,-913,-5,256,-1397,149,211,-921,-148,418,-1527,230,165,-968,-293,368,-1599,219,141,-994,-410,440,-1602,258,109,-992,-500,361,-1351,246,78,-1002,-521,84,-1263,122,83,-994,-566,18,-1048,77,92,-965,-610,30,-833,72,104,-943,-692,32,-560,61,110,-949,-837,105,-157,117,117,-996,-969,231,513,264,143,-1189,-1150,242,1344,156,95,-1357,-1224,269,2092,-131,-21,-1503,-1197,-163,2722,-830,-112,-1588,-1040,-736,2960,-1441,-105,-1583,-823,-1227,3049,-1926,-35,-1534,-606,-1600,2918,-2214,-4,-1426,-345,-1874,2744,-2364,-32,-1354,-80,-1866,2614,-2254,-169,-1197,373,-1422,2561,-2100,-171,-923,712,-995,1745,-2107,-16,-484,744,-483,853,-1680,169,-165,719,-221,455,-1114
367,-908,-316,37,-654,-29,394,-912,-300,83,-497,60,409,-926,-287,75,-431,86,393,-929,-267,38,-425,77,394,-932,-275,43,-397,79,382,-929,-263,-13,-314,72,373,-936,-239,-4,-245,98,370,-952,-234,-12,-188,72,366,-958,-231,-30,-153,26,362,-945,-251,4,-90,9,370,-937,-309,14,-2,-6,405,-965,-440,42,143,29,482,-1067,-687,94,580,34,521,-1228,-922,10,1174,-139,412,-1347,-995,-250,1917,-518,249,-1378,-876,-678,2392,-975,62,-1323,-513,-1133,2515,-1294,9,-1214,-168,-1205,2211,-1351,79,-1086,124,-1203,1734,-1291,167,-998,335,-1033,1352,-1154,248,-842,484,-718,975,-981,325,-675,535,-402,664,-744,461,-544,477,-110,350,-508,593,-436,382,53,181,-279,706,-408,298,181,89,-111,792,-398,226,159,-6,-45,849,-412,185,205,-25,46,867,-427,176,195,-35,80,856,-442,180,198,-62,108,851,-453,182,237,-133,152
273,-975,-194,-103,-826,208,279,-974,-229,-78,-787,150,283,-991,-265,4,-659,186,255,-984,-293,32,-507,163,245,-987,-313,-15,-431,106,244,-986,-318,4,-291,108,242,-986,-297,-5,-220,93,241,-995,-287,0,-148,77,227,-990,-279,9,-90,51,206,-977,-304,54,-64,75,141,-1003,-450,195,-114,302,138,-1181,-851,457,129,651,155,-1532,-1785,517,2050,105,-425,-1946,-2052,-317,3536,-1524,-1044,-2013,-1044,-1105,4164,-2497,-1222,-1762,-114,-744,3061,-1991,-938,-1333,301,-291,1605,-1282,-448,-969,333,-1,744,-770,33,-763,303,68,282,-419,293,-663,294,105,199,-274,480,-607,293,86,72,-170,602,-588,280,182,71,-6,686,-610,254,198,-33,35,747,-625,193,231,-54,65,772,-641,175,174,-55,32,776,-641,170,208,-19,64,766,-645,184,172,-20,57,765,-640,185,178,-23,44,761,-639,187,136,0,8,755,-641,211,157,93,-9,738,-626,254,130,68,-13
494,-896,-121,-232,42,-100,499,-887,-113,-225,114,-80,493,-889,-83,-227,138,-69,488,-887,-46,-148,90,-55,499,-886,-22,-88,15,-38,541,-898,19,-42,-37,-33,579,-924,117,-8,-17,-52,492,-983,274,16,-61,-217,299,-1046,431,158,-408,-431,101,-1100,407,494,-1109,-506,-80,-1123,199,960,-2119,-417,-222,-1071,-111,1117,-2872,-372,-199,-1000,-447,780,-3011,-506,-173,-951,-590,462,-2805,-630,-145,-952,-785,808,-2557,-508,-178,-895,-1011,981,-2393,-399,-162,-931,-1238,597,-1658,-209,-179,-985,-1491,625,-279,76,-324,-1173,-1636,404,1648,207,-503,-1432,-1697,0,3198,163,-691,-1895,-1438,-694,4292,-567,-751,-2217,-1158,-1427,4861,-1756,-728,-2355,-836,-1839,4790,-2665,-749,-2285,-352,-1959,4213,-3254,-871,-2060,182,-1769,3501,-3374,-939,-1528,741,-986,2521,-2865,-762,-930,857,-262,1298,-2103,-423,-374,769,122,361,-1347,-112,-52,711,283,21,-719,137,125,678,342,-165,-147
323,-979,36,-30,280,31,300,-988,86,-7,245,7,286,-984,121,38,139,-12,294,-971,106,42,4,-50,310,-953,91,43,-55,-59,323,-943,83,24,-46,-72,317,-942,140,19,8,-6,251,-1001,274,21,-25,75,113,-1097,442,50,-464,-15,13,-1179,473,240,-1151,-83,-43,-1287,381,613,-1756,-112,-96,-1310,188,759,-2427,-315,-36,-1239,-71,922,-2614,-465,0,-1114,-295,998,-2493,-543,154,-973,-701,970,-2016,-562,281,-901,-1123,534,-743,-525,341,-1058,-1440,-128,659,-533,230,-1380,-1413,-929,2040,-603,-33,-1603,-1165,-1560,3043,-999,-302,-1732,-759,-1971,3768,-1304,-436,-1784,-455,-1894,3958,-1540,-431,-1722,-124,-1833,3629,-1990,-401,-1527,192,-1526,3093,-2080,-442,-1343,499,-1242,2477,-1952,-448,-1092,771,-874,1672,-1620,-325,-847,894,-531,898,-1167,-52,-647,864,-177,222,-623,227,-536,739,22,-166,-286,419,-470,644,140,-325,-76,522,-452,597,197,-474,9
444,-904,-585,-373,448,-79,450,-881,-503,-684,759,-108,459,-849,-346,-947,901,-90,467,-903,-173,-888,946,141,489,-956,-37,-840,798,154,511,-958,31,-625,671,158,504,-930,107,-477,519,121,517,-963,188,-272,377,163,518,-986,318,-93,168,45,477,-995,416,59,-143,-73,346,-1055,473,324,-623,-127,210,-1138,342,739,-1302,-127,104,-1205,101,952,-2007,-394,18,-1228,-89,1088,-2585,-727,-7,-1050,-352,1058,-2786,-687,-44,-972,-499,1150,-2655,-322,-27,-932,-819,1109,-2122,-96,-44,-895,-1110,610,-1144,-85,-91,-1024,-1492,381,890,81,-219,-1222,-1587,-179,2709,-24,-331,-1548,-1509,-948,3860,-517,-363,-1974,-1273,-1654,4537,-1291,-269,-2291,-1012,-1921,4696,-2106,-222,-2358,-643,-1979,4272,-2888,-319,-2192,-264,-1926,3679,-3088,-585,-1906,303,-1530,2891,-2829,-668,-1453,674,-820,1912,-2310,-485,-891,743,-211,755,-1677,-170,-473,685,42,115,-1075,139,-204,639,164,-132,-513
611,-817,-140,-156,21,-41,634,-822,-139,-153,23,-46,647,-823,-99,-141,46,-47,645,-829,-67,-78,63,-40,652,-834,-14,-48,78,-58,661,-864,66,-9,134,-25,616,-949,219,88,136,-25,533,-1134,352,365,-93,-36,429,-1313,433,893,-666,-109,304,-1467,345,1463,-1375,-80,153,-1435,166,1866,-2062,-265,37,-1339,-35,2063,-2525,-355,17,-1172,-263,2083,-2553,-424,25,-1031,-430,1871,-2478,-422,131,-958,-725,1735,-2161,-254,277,-823,-1122,1280,-1219,-127,385,-844,-1350,700,291,-72,395,-1111,-1368,-344,1898,-379,272,-1483,-1253,-1310,2997,-1068,65,-1882,-962,-2072,3631,-1880,-107,-2048,-644,-2430,3770,-2452,-151,-2173,-346,-2586,3668,-2867,-252,-2234,-20,-2338,3412,-3079,-503,-2024,427,-1925,2918,-3313,-723,-1609,877,-1242,2180,-2963,-660,-1039,1046,-409,1085,-2129,-387,-571,987,185,242,-1213,-95,-296,882,377,-247,-680,149,-127,803,377,-475,-245,343,-76,750,379,-607,143
524,-765,89,-137,601,-722,574,-679,119,-222,312,-489,579,-621,200,-305,237,-237,592,-668,237,-338,115,-12,596,-724,248,-307,58,63,586,-740,294,-271,-23,39,531,-726,393,-171,-174,85,319,-853,539,-111,-510,81,45,-1137,570,248,-1480,12,-177,-1276,259,847,-2747,-60,-296,-1128,-269,1183,-3538,-138,-359,-1128,-562,908,-3700,-116,-469,-1117,-786,637,-3577,-258,-536,-1055,-1101,1032,-3215,-76,-442,-860,-1657,1408,-1512,254,-545,-854,-1976,1080,889,296,-770,-1107,-1993,374,2978,31,-1058,-1449,-1723,-353,4091,-472,-1085,-1575,-1305,-787,4543,-805,-1037,-1587,-904,-845,4452,-911,-987,-1550,-325,-727,3668,-967,-699,-1299,66,-496,2477,-925,-372,-1047,310,-361,1676,-816,-71,-905,508,-228,1136,-679,123,-807,583,-92,744,-620,279,-697,562,93,386,-494,407,-623,498,238,118,-349,517,-565,417,339,-60,-161,589,-540,355,405,-227,1,641,-545,296,412,-399,61
544,-832,-134,-218,26,-66,560,-818,-127,-198,34,-18,575,-834,-105,-198,29,11,585,-866,-94,-174,23,-17,578,-863,-80,-118,16,-38,594,-847,-58,-77,14,-47,640,-853,1,-25,92,6,652,-914,101,-10,301,45,434,-1096,327,45,485,19,163,-1490,528,508,105,201,-184,-1816,466,1475,-1227,104,-335,-1867,86,2265,-2652,-178,-379,-1722,-308,2800,-3432,-387,-397,-1455,-513,2689,-3734,-543,-365,-1213,-672,2560,-3520,-433,-165,-1044,-1003,2373,-2992,-238,87,-943,-1364,1654,-1382,-188,258,-1058,-1574,417,572,-310,188,-1609,-1461,-1241,2516,-611,-39,-1925,-1113,-1760,3908,-1170,-418,-2121,-656,-1887,4504,-1960,-628,-2092,-189,-1612,4235,-2667,-675,-1931,214,-1336,3605,-3150,-711,-1614,529,-941,2839,-3252,-781,-1257,770,-582,2127,-3048,-780,-818,939,-148,1323,-2448,-617,-433,1003,166,571,-1641,-306,-148,938,319,-124,-745,-46,-33,859,273,-446,-249,124,-11,843,114,-689,39
668,-773,9,-108,-40,53,674,-773,32,-146,-82,20,689,-753,54,-104,-101,30,697,-738,107,-76,-130,32,690,-707,139,-16,-181,-19,664,-693,161,18,-197,-25,633,-689,198,99,-168,47,526,-725,246,92,-119,153,321,-929,353,63,-368,331,122,-1231,396,510,-1192,427,-55,-1356,142,1184,-2540,423,-58,-1344,-255,1405,-3230,303,-105,-1166,-431,1327,-3062,124,-223,-1132,-613,1566,-2952,243,-189,-1032,-991,1711,-2307,370,-103,-1038,-1340,1239,-603,312,-410,-1164,-1558,467,2023,-18,-900,-1479,-1523,-572,3631,-465,-1300,-1664,-1137,-897,4465,-696,-1339,-1552,-677,-872,4219,-746,-1168,-1407,-426,-699,3436,-499,-966,-1380,-134,-607,2626,-275,-804,-1337,113,-444,1869,-279,-609,-1240,340,-239,1129,-329,-407,-1140,412,1,536,-331,-207,-1015,433,161,63,-363,-42,-950,369,286,-221,-303,76,-898,325,339,-389,-222,174,-903,257,415,-492,-76,251,-917,205,392,-590,-50
-278,-1670,560,1608,-1946,-104,-391,-1491,257,2154,-2693,-158,-408,-1291,13,2245,-3195,-30,-285,-1119,-270,2186,-3089,9,-141,-917,-410,1846,-2701,38,46,-845,-488,1521,-2172,113,251,-783,-512,1182,-1697,194,423,-778,-480,930,-1268,309,555,-810,-413,608,-1044,344,667,-880,-453,403,-881,270,648,-926,-516,267,-545,180,604,-1070,-672,-3,-27,-59,594,-1348,-920,-512,1108,-548,575,-1560,-988,-1120,2275,-1112,344,-2055,-925,-2214,3412,-2210,1,-2358,-625,-2849,3914,-3459,-328,-2547,-249,-3294,3967,-4439,-719,-2668,358,-2910,3786,-4709,-1175,-2369,963,-1850,2965,-4600,-1194,-1503,1122,-513,1482,-3656,-913,-713,997,297,566,-2632,-566,-114,880,386,-228,-1753,-296,129,823,363,-427,-797,-46,163,816,183,-549,-39,150,131,817,139,-572,393,328,108,810,169,-585,683,475,77,769,152,-621,736,572,31,740,129,-547,787,613,-5,703,138,-556,792,562,-70,700,148,-575,897
530,-1364,530,309,224,-482,402,-1357,556,789,-164,-782,327,-1265,420,1194,-571,-1004,319,-1152,305,1372,-710,-1105,333,-1020,251,1536,-769,-1039,366,-906,221,1654,-813,-965,377,-800,209,1761,-932,-886,337,-705,124,1870,-1209,-831,256,-610,7,1959,-1561,-812,224,-431,-293,2031,-1963,-636,286,-210,-707,1818,-2108,-426,362,-13,-990,1602,-1473,74,339,28,-1091,1429,-787,641,278,-55,-1019,1213,15,1207,98,-246,-813,1031,767,1888,-86,-694,-705,685,1323,2583,-285,-1200,-719,189,2440,2705,-704,-2108,-470,-568,3618,2115,-807,-2551,-231,-193,3851,875,-765,-2784,-203,-465,3843,-741,-682,-2643,-241,-845,3893,-2533,-682,-2309,-70,-1319,3820,-3329,-778,-2003,261,-1492,3651,-3678,-864,-1639,572,-1144,3237,-3748,-841,-1110,778,-621,2270,-3547,-735,-593,803,-59,1361,-2944,-502,-89,711,299,536,-2048,-237,236,595,518,149,-1487,-44,550,504,289,-99,-1064,110,636,537,-20,-172,-416
724,-691,149,-289,85,-16,716,-688,174,-290,99,1,706,-694,188,-285,101,10,698,-700,192,-281,94,27,688,-703,182,-256,105,52,696,-709,159,-245,90,79,700,-719,146,-223,118,84,714,-733,186,-202,189,93,766,-835,328,-80,266,-44,815,-919,569,215,147,-496,805,-926,754,693,-177,-833,727,-808,739,1242,-603,-1048,636,-672,624,1669,-878,-955,581,-555,470,1853,-1026,-726,547,-466,327,1979,-971,-421,553,-451,211,1951,-919,-79,538,-441,74,1899,-947,244,499,-457,-82,1793,-977,589,390,-474,-250,1577,-1075,911,265,-554,-441,1418,-1030,1484,206,-799,-639,1256,-625,1881,92,-993,-727,927,52,2214,125,-1519,-742,513,1019,2075,166,-2212,-675,375,2331,1060,130,-3055,-564,-347,3317,-1127,-66,-3578,-569,-1619,3673,-2978,-443,-3613,82,-2207,3531,-4170,-787,-2911,703,-1935,2563,-4847,-864,-2026,869,-1535,1757,-4717,-796,-1248,897,-996,1203,-3821
769,-692,204,-22,220,155,764,-693,235,-34,229,67,767,-695,273,-40,235,6,774,-693,347,3,243,0,772,-730,441,16,263,-27,681,-823,629,78,305,-142,501,-983,850,344,22,-350,294,-1107,864,1045,-816,-556,182,-1190,649,1811,-1761,-635,89,-1189,240,2463,-2711,-762,28,-1077,-245,2679,-3198,-853,94,-862,-700,2433,-2972,-829,65,-621,-974,2276,-2253,-417,55,-530,-1191,2110,-1823,73,33,-487,-1330,1643,-624,607,-41,-648,-1355,1073,436,1141,-170,-1071,-1435,-13,1914,1424,-342,-1682,-1488,-729,3402,1402,-691,-2496,-1425,-2112,4415,256,-750,-2967,-1068,-2815,4952,-1165,-639,-2906,-501,-2895,4665,-2308,-601,-2618,-13,-2541,3944,-2812,-631,-2146,509,-1795,2983,-2829,-543,-1477,748,-719,1830,-2371,-315,-863,691,5,907,-1781,-31,-330,586,270,296,-1278,166,24,540,316,73,-935,318,245,569,193,-23,-505,446,318,602,111,-115,-170,591,317,599,79,-208,163,741,257,562,119,-234,422
502,-941,-168,657,-841,229,554,-932,-198,535,-773,224,579,-889,-133,420,-648,145,623,-845,-107,334,-580,152,650,-848,-56,304,-482,137,660,-833,-43,237,-412,119,653,-844,-23,186,-350,79,629,-825,-17,131,-307,54,601,-834,3,104,-287,70,551,-818,0,81,-390,73,469,-795,-58,89,-567,177,331,-813,-192,124,-784,445,199,-858,-364,132,-871,800,41,-1002,-563,332,-479,1267,-38,-1418,-834,665,397,1438,-317,-2319,-1045,879,2453,140,-934,-3191,-814,-662,3876,-2348,-1254,-3640,-246,-2048,4403,-3710,-1312,-3102,495,-1960,3669,-4586,-1167,-2371,727,-1522,2700,-4928,-1044,-1534,795,-909,1967,-4483,-931,-947,829,-371,1335,-3718,-817,-410,787,75,731,-2781,-694,12,673,308,271,-1880,-553,356,558,374,-37,-940,-415,528,521,261,-225,-153,-239,567,532,141,-453,649,-30,564,526,221,-775,1348,224,430,424,388,-763,2234,465,231,336,576,-604,2710
408,-557,738,419,-259,494,393,-517,731,191,-394,469,398,-535,723,146,-450,541,387,-555,722,141,-477,594,392,-583,687,173,-577,633,379,-586,654,170,-569,644,379,-622,630,152,-565,660,364,-640,610,99,-534,668,372,-702,600,83,-569,681,370,-735,563,82,-535,646,383,-793,515,145,-493,670,384,-922,449,370,-234,739,354,-1085,362,505,6,711,345,-1486,335,439,386,321,195,-1786,408,417,859,-625,-64,-2018,636,61,1025,-2061,-373,-2209,1024,-665,919,-3507,-645,-2426,1536,-1440,410,-4470,-899,-2191,1856,-1682,-430,-4980,-1115,-1741,1938,-1420,-1163,-5308,-1425,-1110,1933,-748,-1294,-5240,-1552,-359,1424,425,-1618,-3828,-1325,191,642,953,-1794,-2330,-981,499,178,1020,-1404,-1082,-518,621,-8,715,-673,9,-196,690,-13,342,-248,456,-4,751,77,34,83,646,137,797,154,-23,188,859,277,775,197,52,314,1027,354,767,210,120,361,1128
659,-657,360,-43,-42,-163,670,-634,361,-81,-34,-144,684,-615,362,-106,-9,-132,702,-592,383,-152,-6,-132,727,-574,398,-165,7,-138,781,-544,415,-254,21,-199,833,-487,441,-370,84,-321,842,-399,565,-566,84,-511,672,-338,791,-616,-294,-678,533,-513,973,-186,-888,-550,446,-787,895,811,-1553,-182,359,-1008,620,1701,-2262,118,192,-1011,201,1856,-2826,405,128,-1022,-87,1662,-3062,550,95,-1028,-340,1606,-2490,626,40,-1029,-435,1371,-2017,622,0,-1062,-599,1264,-1587,650,-62,-1087,-753,1364,-1072,577,-181,-1209,-854,1356,-396,589,-218,-1422,-992,1204,610,264,-341,-1751,-965,511,2057,-290,-597,-2297,-848,-460,3560,-1413,-879,-2621,-500,-1172,4432,-2598,-958,-2872,-133,-1297,4743,-3916,-993,-2740,289,-845,4134,-4648,-1141,-2298,765,-589,2478,-5120,-1339,-1711,1258,-620,1283,-5089,-1348,-943,1324,491,315,-3620,-1016,-389,914,1324,-299,-2043,-594,139,453,1461,-626,-936
438,-385,832,53,104,25,438,-300,863,-32,-12,31,438,-253,884,-29,-84,116,434,-202,893,-19,-155,192,433,-175,887,0,-226,306,418,-156,887,62,-232,416,396,-158,895,95,-333,615,385,-202,901,178,-397,773,387,-265,885,315,-454,923,361,-317,866,388,-493,1022,343,-403,844,484,-535,1144,321,-481,777,537,-493,1190,319,-700,677,708,-354,1326,353,-1020,527,950,112,986,217,-1300,644,639,482,253,63,-1568,942,353,746,-872,-277,-1759,1380,-25,569,-2533,-706,-1846,1884,-1094,-287,-3916,-951,-1960,2365,-1843,-1259,-4649,-1077,-1655,2556,-1844,-2267,-5120,-1265,-1096,2431,-1509,-2735,-5186,-1450,-342,2101,-861,-2724,-4284,-1327,119,1513,135,-2439,-2806,-995,356,783,755,-2081,-1391,-689,521,267,860,-1753,-578,-384,638,-64,582,-1330,0,-148,736,-184,313,-671,320,114,789,-158,104,-33,638,317,788,-75,195,604,770,495,714,1,352,992,908
331,351,846,445,-103,-92,331,365,796,369,-128,-63,339,391,787,237,-95,-35,339,426,802,220,-32,-69,346,455,814,170,-45,-89,353,485,807,162,-194,-96,383,486,786,107,-475,-95,396,494,762,-8,-472,-58,427,495,733,-88,-481,-66,454,499,706,-90,-394,-103,490,536,660,-133,-189,-176,525,682,636,-22,47,-166,501,822,586,115,113,-25,415,922,496,136,10,190,222,981,459,192,40,315,29,1001,533,590,360,685,-121,990,671,1012,921,1171,-221,923,843,1757,1542,1795,-280,814,949,2405,2179,2001,-196,777,1025,2402,2269,2065,-157,707,963,2353,2296,1777,-70,554,1012,1878,2258,1624,2,352,1148,1280,1994,1106,68,129,1396,578,1240,322,-2,28,1792,-295,-273,-994,-338,274,2173,-1250,-1885,-2029,-673,569,2463,-1532,-3453,-2739,-911,889,2513,-1352,-4361,-2703,-996,1155,2361,-1200,-4944,-1922,-944,1322,2116,-1035,-5253,-1121
521,865,261,30,-89,-187,500,877,258,14,-99,-113,491,865,247,-14,-92,-35,483,848,230,-18,-65,-6,481,841,208,-35,-38,23,490,839,196,-55,-4,37,499,841,170,-3,57,54,516,831,171,-20,71,75,532,872,106,176,78,48,526,893,-48,572,135,136,455,875,-300,660,232,346,296,960,-409,461,535,333,107,1070,-351,700,1080,323,-49,1236,-154,1338,1847,139,-94,1341,39,1926,2581,308,-64,1349,238,2242,2848,210,-13,1275,325,2124,2689,195,-13,1203,313,1905,2446,224,0,1084,349,1680,2319,146,52,979,487,1334,2085,62,95,893,718,1036,1507,-206,42,881,937,558,495,-459,-70,1039,1180,-17,-910,-568,-348,1414,1327,-665,-2568,-549,-722,2016,1390,-1346,-3924,-123,-1028,2567,1355,-1646,-4696,850,-1158,2789,1278,-1781,-5105,2088,-1144,2669,985,-1592,-5169,3038,-1219,2376,582,-1239,-4742,3195,-1311,1938,-32,-674,-3907,2946
39,474,857,-470,1,182,48,481,873,-454,-191,271,35,498,872,-414,-325,507,90,513,891,-399,-401,826,115,554,906,-419,-400,992,157,498,885,-517,-480,1213,156,406,910,-632,-553,1391,144,237,932,-525,-658,1579,89,-32,933,-1368,-1422,1221,223,-353,842,-587,-1561,1441,271,-510,735,-154,-1420,1604,342,-663,581,-88,-1316,1515,393,-803,379,-102,-1130,1176,405,-882,142,-175,-720,982,505,-1022,-92,-51,-108,815,524,-1179,-244,-19,561,497,541,-1433,-290,-158,1173,-82,462,-1799,-205,-408,1842,-954,275,-2247,62,-720,2386,-2173,36,-2734,407,-1161,2497,-3513,-332,-3270,826,-1823,2150,-4474,-578,-3311,1182,-1882,1409,-4982,-1131,-2686,1443,-1344,732,-5292,-1434,-1862,1595,-422,154,-4634,-1240,-955,1118,802,-456,-3056,-890,-288,643,1101,-889,-1982,-557,218,320,809,-915,-1224,-347,474,275,400,-582,-552,-151,604,353,63,-241,70,26,654,473,15,-9,626
277,-918,271,-39,-91,-48,287,-927,325,-45,-79,-27,288,-922,399,-39,-93,-43,284,-910,475,-59,-154,-110,289,-895,564,-115,-228,-231,263,-856,658,-202,-395,-460,162,-904,709,-190,-630,-552,48,-1036,728,-26,-1075,-597,-136,-1193,591,569,-2030,-605,-249,-1270,311,1202,-3085,-445,-355,-1281,-54,1611,-4047,-154,-212,-1177,-388,1588,-3755,138,-213,-1030,-458,1196,-2859,51,-287,-989,-551,1212,-2393,236,-307,-993,-797,1393,-1780,493,-296,-1090,-1074,1211,-629,564,-403,-1378,-1262,804,1301,164,-698,-1770,-1227,173,3069,-509,-1048,-2337,-1160,-495,4226,-1649,-1289,-2865,-939,-1315,4884,-3246,-1253,-2915,-621,-1116,5038,-4077,-1145,-2664,-224,-877,4267,-4566,-1180,-2280,219,-714,3338,-4549,-1148,-1722,607,-106,2211,-3904,-966,-1111,679,595,1227,-3007,-666,-500,616,1002,442,-2048,-403,-70,572,1081,74,-1391,-186,255,548,894,-152,-791,-10,397,576,604,-296,-313,149,456,608,441,-322,240
307,-951,59,-170,-40,-230,342,-939,9,-271,32,-257,364,-920,-25,-453,34,-232,375,-892,-80,-675,-32,-243,425,-880,-135,-908,34,-219,453,-856,-178,-905,198,-30,445,-860,-197,-822,66,47,432,-864,-248,-683,51,94,399,-886,-294,-468,40,175,381,-887,-342,-344,43,124,369,-884,-369,-231,16,43,389,-867,-405,-151,66,17,403,-846,-404,-75,213,-2,421,-834,-383,-66,275,36,415,-876,-294,-119,267,51,405,-952,-160,-134,107,56,299,-1154,-5,-223,-30,8,48,-1600,102,-30,-497,-372,-135,-1849,-140,495,-1301,-1077,-327,-1790,-539,1053,-1955,-2213,-514,-1438,-814,1411,-2255,-3175,-552,-909,-1058,1553,-2231,-3596,-498,-354,-1207,1680,-1993,-3243,-345,308,-1414,1574,-1501,-2124,-226,773,-1610,1170,-750,-590,-138,760,-2155,-58,861,981,-261,191,-2598,-1292,2516,1931,-523,-577,-2756,-2196,3912,2288,-587,-1202,-2589,-2295,4648,1961,-623,-1727,-2238,-2172,4917,1160
304,-944,-317,76,-394,-184,283,-936,-361,179,-358,-138,254,-950,-384,232,-340,-28,233,-942,-377,157,-360,-140,241,-918,-339,139,-442,-193,244,-888,-307,79,-516,-225,220,-920,-298,21,-610,-252,206,-927,-320,3,-740,-322,200,-900,-368,7,-813,-379,231,-854,-492,32,-800,-388,274,-809,-585,82,-694,-298,317,-774,-671,137,-443,-137,357,-761,-737,107,-167,-33,429,-800,-856,80,274,124,459,-867,-928,-36,912,55,513,-861,-946,-206,1662,-125,539,-889,-836,-423,2319,-328,541,-901,-687,-664,2661,-487,527,-923,-491,-672,2683,-544,515,-875,-301,-759,2607,-704,372,-872,-53,-744,2381,-629,25,-913,249,-698,1907,-423,-565,-1068,587,-524,845,4,-877,-1108,633,71,-1049,247,-993,-1197,169,574,-3048,412,-848,-1327,-670,858,-4180,1,-594,-1196,-978,801,-4058,-275,-428,-1079,-1323,697,-3838,-569,-340,-922,-1363,604,-2936,-431,-266,-794,-1491,526,-2270,-448
93,808,509,572,-406,-315,115,826,452,576,-432,-270,106,864,381,553,-350,-255,105,884,353,507,-93,-242,89,920,329,415,39,-194,80,921,272,267,93,-190,66,930,231,256,134,-132,48,952,187,334,167,-41,35,1015,99,464,218,-6,-3,1068,-15,481,285,37,-36,1109,-177,287,406,237,-82,1060,-248,186,555,520,-239,1039,-339,329,866,619,-446,1121,-304,460,1616,550,-618,1212,-169,625,2684,607,-722,1232,-99,873,3397,537,-748,1226,172,900,3896,602,-588,1118,416,897,3536,655,-509,1038,600,1068,3086,452,-376,907,870,921,2456,247,-262,850,1210,473,1199,-94,-395,1020,1589,-190,-1106,-585,-851,1426,1674,-725,-2955,-719,-1286,1822,1610,-1383,-4145,-150,-1372,1927,1543,-1616,-4774,541,-1190,1945,1412,-1747,-5180,1271,-982,1837,1112,-1580,-5101,1681,-884,1674,660,-1300,-4472,1707,-855,1522,155,-792,-3566,1439,-712,1239,-255,-184,-2268,1345
449,800,329,-234,-28,-14,456,811,313,-298,-16,-33,469,827,325,-280,-12,-76,464,847,334,-248,-62,-128,448,859,336,-159,-67,-123,432,856,347,-113,-48,-57,419,837,357,-98,-14,28,416,816,370,-68,30,66,430,788,393,-59,67,96,453,769,407,-74,76,110,498,761,393,-97,72,89,563,815,341,-130,57,43,587,932,222,-193,-22,79,438,1088,67,-225,-126,225,249,1250,-17,88,172,639,-10,1324,147,471,1035,1469,-152,1161,556,737,1767,2135,-170,861,822,815,1832,2498,-54,496,958,791,1605,2524,41,148,1029,911,1308,1991,100,-150,1024,658,1169,1380,82,-420,1089,292,973,435,33,-505,1202,186,572,-632,-85,-575,1602,-305,-179,-2005,-291,-430,2025,-705,-1001,-2959,-561,-168,2569,-1378,-2401,-3747,-707,40,2898,-2500,-3830,-4186,-700,272,2777,-2385,-4554,-3965,-744,506,2433,-2065,-4832,-3325,-916,843,1965,-1389,-4447,-2550
127,12,950,-376,-67,99,143,11,939,-359,-119,66,156,27,954,-371,-168,43,157,41,973,-282,-176,68,163,47,975,-318,-207,40,158,64,977,-334,-247,125,215,74,1016,-392,-367,268,251,124,1052,-156,-328,423,270,192,1022,199,-470,611,243,277,952,601,-402,730,40,378,1016,677,-273,901,-194,373,1102,629,-247,1341,-345,175,1254,499,-468,2052,-365,-125,1196,650,-600,2698,-154,-444,1084,721,-797,2910,-84,-528,966,873,-798,2713,-34,-691,874,1081,-696,2730,151,-944,689,1167,-458,2230,238,-1217,583,1068,84,1243,236,-1542,614,403,504,-335,-33,-1843,842,-230,935,-2212,-644,-2113,1344,-857,1067,-3734,-1095,-2227,1799,-1116,530,-4539,-1349,-2235,2103,-968,-266,-5057,-1404,-1997,2175,-607,-1133,-5332,-1508,-1445,1978,-178,-1759,-5227,-1615,-762,1743,281,-1783,-4334,-1410,-170,1283,993,-1645,-2592,-1019,130,782,1326,-1525,-1179,-561,361,324,1293,-1224,-191
341,-443,773,-84,-179,-98,371,-442,756,-146,-159,-53,396,-438,755,-151,-128,5,409,-444,772,-138,-70,45,408,-456,795,-54,-35,112,406,-456,808,45,-21,158,411,-441,805,72,-74,168,436,-411,808,36,-111,165,447,-362,864,-62,-152,113,453,-283,917,-292,-422,28,376,-216,930,-458,-525,29,218,-266,1001,-776,-733,119,68,-554,1080,-780,-1496,356,-24,-878,905,-138,-2372,625,-81,-1083,524,418,-3208,746,-11,-1121,112,477,-3402,475,37,-1055,-228,678,-2946,180,113,-968,-640,806,-2119,140,139,-829,-971,709,-905,247,168,-888,-1289,342,482,357,44,-1333,-1346,-164,2166,278,-181,-1902,-1160,-457,3579,-462,-414,-2434,-710,-641,4426,-1826,-563,-2735,-247,-790,4433,-3375,-712,-2778,187,-750,3926,-4324,-991,-2388,552,-239,3150,-4678,-1240,-1754,783,359,2266,-4338,-1225,-1298,806,856,1537,-3669,-1030,-631,678,1395,175,-2726,-724,3,431,1574,-569,-1710
-9,-323,1013,-447,-561,-286,91,-379,999,-320,-601,-541,196,-366,999,-269,-672,-867,252,-302,968,-361,-784,-1051,289,-182,963,-552,-795,-1109,302,-20,988,-526,-762,-895,164,111,1131,-483,-691,-570,-57,133,1178,-401,-1127,24,-91,-187,1112,-393,-1811,697,-71,-548,875,-130,-2458,994,19,-920,524,63,-2823,1177,32,-1066,167,105,-2726,1107,103,-1088,-140,326,-2203,854,142,-1080,-332,439,-2005,749,202,-970,-639,677,-1326,701,293,-945,-930,871,-450,821,394,-1111,-1101,707,376,632,385,-1499,-1204,497,1876,-103,220,-1956,-974,89,3238,-1362,-14,-2302,-521,-352,3592,-2873,-114,-2388,-98,-652,3306,-3928,-185,-2295,269,-652,2632,-4700,-312,-1969,547,-604,1881,-4936,-521,-1493,807,-442,1358,-4565,-705,-1040,1012,-186,878,-3811,-648,-515,925,284,162,-2884,-537,-18,740,608,-304,-2118,-427,333,602,701,-511,-1282,-237,501,546,483,-624,-502,-56,534,573,290,-605,152
231,284,952,1057,93,302,238,451,828,1251,186,159,146,621,822,973,277,374,119,749,814,920,535,655,49,869,837,946,687,1103,-56,907,747,877,966,1595,-150,820,745,717,1198,2113,-191,643,782,542,1277,2372,-147,413,819,433,1198,2407,-25,218,857,361,1029,2068,52,140,893,256,819,1717,161,130,912,233,612,1245,213,181,904,162,437,917,255,253,884,141,346,699,278,291,877,81,304,577,312,263,886,27,248,459,347,204,924,10,197,256,333,144,922,-47,65,-24,261,20,960,4,-37,-332,191,-187,1136,19,-207,-697,-2,-342,1378,3,-626,-1490,-296,-324,1700,-143,-1267,-2474,-849,-195,1989,-395,-2423,-3482,-1361,-189,2317,-819,-3668,-4337,-1913,19,2557,-887,-4550,-4717,-2164,349,2408,-551,-5017,-4375,-2263,801,1849,-148,-5051,-3273,-1962,1006,1193,285,-4329,-1789,-1353,911,537,496,-3347,-460,-857,826,79,399,-2567,138
388,66,885,-62,-50,-162,424,83,886,-122,-21,-169,447,109,894,-212,-45,-174,461,127,896,-226,-62,-187,462,141,886,-197,-71,-230,468,158,861,-161,-81,-242,492,190,823,-52,-23,-305,485,270,803,160,53,-417,358,493,710,614,265,-305,160,758,711,1346,671,206,-64,919,699,1856,952,923,-228,1010,671,2193,1596,1441,-326,988,661,2039,1987,1766,-342,940,682,1837,2295,1836,-318,858,723,1915,2530,1751,-258,757,709,1772,2440,1360,-247,707,726,1554,2347,1002,-174,599,958,947,1770,529,-189,497,1153,722,807,-136,-340,432,1426,339,-611,-952,-778,606,1605,395,-2083,-1743,-1500,997,1578,489,-3620,-2213,-1909,1311,1412,99,-4523,-1477,-1918,1440,1305,-537,-5001,-494,-1609,1295,1068,-631,-5196,190,-1278,1117,730,-552,-4823,382,-993,975,344,-403,-4154,300,-760,909,-10,-187,-3292,220,-473,816,-313,67,-2102,335,-176,685,-452,239,-1056,317
70,312,895,-465,-440,-6,137,329,904,-568,-522,80,165,358,880,-670,-524,449,148,426,910,-632,-542,648,130,414,953,-381,-477,937,146,287,942,-333,-480,1215,191,24,929,-193,-436,1268,239,-215,937,118,-292,1014,281,-398,936,166,-306,657,331,-519,899,182,-301,152,438,-589,877,-5,-318,-342,524,-516,828,-387,-421,-788,532,-370,822,-750,-431,-1115,512,-168,821,-929,-386,-1234,458,142,860,-973,-177,-1131,331,428,991,-958,-51,-653,127,470,1133,-534,-163,102,-15,292,1156,-131,-513,1272,-50,-128,1071,-68,-1180,2295,-34,-443,851,-170,-1620,2498,-38,-754,719,-140,-1742,2444,-63,-945,484,-245,-1886,2157,-57,-1030,120,-171,-1970,1810,18,-1291,-307,449,-1207,1444,125,-1651,-525,930,25,609,91,-1967,-414,1057,1139,-831,-134,-2253,125,526,1643,-2701,-339,-2182,679,-375,1307,-3921,-333,-1930,1059,-1031,644,-4660,-286,-1613,1256,-1482,-1,-4806
177,579,789,112,79,-20,170,558,797,242,62,-197,163,538,820,119,-140,-303,168,529,801,5,-425,-424,199,546,763,136,-501,-557,215,634,714,169,-538,-595,231,734,703,302,-513,-520,230,881,598,673,-414,-510,181,1014,371,1273,-178,-141,55,1090,56,1535,287,193,-88,1099,-147,1120,1089,605,-196,1129,-117,1088,1654,917,-311,1189,-14,901,2400,1228,-359,1106,132,1221,2993,1293,-364,1066,186,1615,3262,1056,-328,1012,347,1345,3185,1020,-217,908,478,1481,2745,665,-213,920,695,1314,2465,344,-113,875,996,1186,1427,99,-169,664,985,440,159,-182,-335,698,1119,-36,-1128,-762,-728,1058,1210,-336,-2681,-1343,-1157,1555,1141,-449,-3784,-1308,-1328,1935,1060,-202,-4220,-414,-1230,1929,1123,-690,-4634,806,-1126,1896,1243,-1165,-5100,1520,-1121,1838,1103,-1359,-5346,1884,-1213,1703,683,-1214,-5217,1867,-1318,1554,117,-784,-4526,1646,-1160,1167,-413,121,-2920,1673
213,788,590,-568,-835,-1026,150,844,556,-530,-697,-1055,102,866,533,-441,-726,-898,119,830,557,-287,-697,-778,135,806,570,-381,-679,-548,168,778,566,-381,-547,-500,140,802,579,-430,-580,-442,149,800,586,-466,-580,-296,148,874,555,-454,-471,-248,46,1019,483,-449,-336,-78,-118,1168,436,-329,63,366,-329,1290,548,-68,722,1087,-463,1248,814,479,1343,1866,-512,1058,991,925,1536,2495,-503,812,968,1204,1595,2776,-411,503,965,1203,1650,2694,-227,241,968,854,1400,2211,10,-40,1045,612,1054,1499,229,-317,1121,413,606,706,407,-544,1303,41,-62,-408,361,-505,1599,-354,-773,-1311,79,-269,1911,-692,-1738,-2069,-253,-26,2047,-932,-2567,-2456,-569,232,2063,-798,-3098,-2701,-752,567,1973,-712,-3582,-2339,-747,860,1744,-727,-3854,-1770,-708,1052,1431,-742,-3840,-1234,-731,1120,1048,-701,-3543,-816,-796,1131,572,-497,-2801,-496,-712,1098,189,-251,-1868,-258
236,638,680,-139,-47,-6,244,661,672,-178,-77,-72,240,694,667,-197,-96,-110,233,720,673,-187,-93,-118,226,734,674,-153,-78,-81,226,730,672,-130,-66,-31,235,714,670,-92,-40,19,242,694,665,-77,-27,48,245,676,675,-49,-3,31,237,668,688,-38,-3,5,225,662,695,-50,-30,12,220,672,686,-83,-48,3,223,755,652,-144,-66,-4,183,876,601,-151,-78,81,21,1062,569,-106,-19,432,-153,1119,665,109,413,1111,-198,1004,834,253,734,1774,-187,823,932,811,938,2141,-214,614,964,1018,1119,2122,-160,316,993,723,1018,1954,40,-73,998,560,865,1810,363,-526,999,80,809,1055,478,-821,1052,-127,752,-185,329,-929,1433,-410,86,-1720,-21,-888,1746,-666,-872,-2995,-423,-708,1934,-1062,-1833,-3558,-603,-492,1933,-1063,-2226,-3797,-677,-218,1884,-1004,-2577,-3691,-674,38,1741,-870,-2680,-3228,-681,270,1498,-683,-2488,-2711
247,-635,757,-1111,-106,-161,234,-673,697,-822,129,-272,232,-664,642,-837,306,-315,266,-653,633,-708,379,-210,287,-647,651,-505,159,-76,332,-639,654,-427,64,18,320,-625,723,-473,86,-17,323,-604,828,-592,24,9,282,-603,980,-536,-45,-65,98,-620,1112,-516,-555,-49,-82,-851,1132,-260,-1386,118,-176,-1022,960,84,-2214,180,-263,-1130,694,655,-3113,306,-253,-1131,314,1059,-3361,526,-197,-1088,-151,1187,-3273,489,27,-1004,-669,1211,-2428,508,204,-970,-953,983,-1015,440,204,-1033,-965,452,287,214,67,-1257,-863,-197,1592,-254,-77,-1469,-783,-657,2581,-740,-267,-1748,-638,-907,3542,-1088,-463,-2005,-371,-1030,4029,-1581,-617,-2069,-90,-1197,3841,-2519,-652,-1910,175,-1226,3353,-2876,-646,-1708,414,-1222,2802,-3027,-612,-1395,647,-1069,2126,-2847,-556,-1078,800,-828,1540,-2444,-451,-733,908,-470,941,-1768,-300,-491,926,-174,391,-1031,-77,-355,873,34,-166,-320,148,-319,774,223,-531,258
259,43,933,228,56,-34,258,68,935,179,43,-121,274,113,937,140,-4,-127,278,139,934,156,12,-106,290,165,940,247,39,-67,297,192,934,312,68,-46,327,227,944,631,144,-52,397,269,902,1814,583,-621,205,634,648,2365,710,-1353,-110,988,437,2236,812,-899,-382,1090,201,2241,847,-36,-446,1014,-24,2441,802,680,-556,973,-65,2095,1231,564,-532,945,-30,2038,2258,361,-440,901,-17,1513,2529,223,-339,912,58,1113,2514,246,-165,932,227,842,2207,278,56,977,402,558,1667,199,202,1023,612,441,1053,57,218,1084,787,109,-36,12,81,1323,944,-225,-1354,109,-228,1500,903,-584,-2570,408,-662,1726,619,-1034,-3604,891,-858,1805,310,-1142,-3882,1433,-869,1801,-4,-1134,-3783,2017,-772,1642,-235,-1157,-3361,2376,-621,1354,-426,-1021,-2739,2193,-503,1087,-576,-833,-2230,1774,-352,826,-726,-610,-1519,1215,-183,666,-781,-364,-847,758
145,242,912,-69,-19,190,172,260,881,-109,-7,79,211,302,842,-186,32,-45,231,352,786,-329,115,-243,157,438,725,-741,202,-468,37,487,774,-912,179,-511,-314,546,1046,-965,154,-348,-768,439,1493,-595,-195,771,-981,125,1611,74,-749,2454,-984,-301,1414,770,-1357,3864,-851,-613,1154,1043,-1699,4448,-461,-929,847,1090,-1730,4054,-268,-1128,613,1136,-1364,3138,33,-1291,392,770,-652,1799,88,-1310,436,336,93,152,20,-1352,680,-154,619,-1685,-241,-1353,910,-339,1019,-3238,-686,-1159,1177,-689,1012,-4317,-977,-888,1507,-965,421,-4815,-1027,-602,1627,-754,-144,-4470,-920,-308,1571,-535,-783,-3797,-765,-53,1406,-373,-1142,-3116,-580,177,1193,-236,-1216,-2387,-425,341,1026,-104,-1044,-1770,-250,468,880,53,-785,-1094,-61,504,780,180,-557,-474,165,458,690,280,-345,46,329,405,638,264,-217,312,451,345,647,227,-38,481,529,293,696,203,68,585
206,-533,772,-609,247,-114,215,-527,755,-637,227,-163,230,-564,783,-871,215,-253,233,-586,812,-898,443,-234,214,-599,833,-970,470,-214,179,-594,906,-781,195,-127,55,-616,1012,-661,-134,-64,-172,-733,1095,-513,-851,3,-335,-916,1034,-286,-1936,183,-458,-1090,782,52,-3128,409,-473,-1144,416,384,-3957,274,-401,-1085,57,670,-4002,245,-261,-995,-328,829,-3427,256,-202,-993,-602,811,-2608,298,-95,-1013,-907,614,-1521,99,-64,-1114,-1168,266,125,-19,-188,-1431,-1474,-587,2419,-674,-691,-1834,-1332,-1626,3757,-1228,-826,-2068,-644,-1991,4469,-1531,-772,-2023,-200,-1717,3837,-1920,-678,-1785,212,-1362,2850,-2091,-487,-1439,430,-1003,1921,-1877,-254,-1104,558,-702,1211,-1579,-31,-825,624,-481,754,-1217,175,-668,654,-300,403,-984,356,-511,628,-105,82,-781,502,-410,592,31,-160,-604,627,-383,533,212,-343,-344,718,-396,465,480,-394,-55,777,-419,408,649,-450,138
184,754,597,-429,-282,223,247,717,624,-364,-192,241,297,672,648,-319,-135,205,339,622,679,-266,-136,119,349,598,691,-249,-168,6,340,600,699,-265,-205,-59,338,606,697,-235,-198,-112,327,622,704,-233,-169,-144,324,627,709,-188,-129,-91,338,602,703,-167,-107,-88,371,602,673,-140,-78,-153,397,659,614,-153,-104,-273,297,807,543,-210,-191,-380,16,1046,539,-141,-10,-340,-318,1242,634,247,664,634,-512,1149,840,704,1462,1954,-604,922,1011,1174,2030,3233,-565,642,1171,1751,2224,3722,-417,426,1179,2194,2039,3260,-339,290,1166,2095,1823,2733,-184,100,1199,1565,1286,2003,-44,-39,1281,722,328,647,-78,24,1394,51,-633,-684,-331,228,1440,-454,-1694,-1927,-606,578,1453,-1055,-2481,-2533,-807,930,1577,-1543,-3411,-2934,-891,1157,1572,-1765,-4114,-2655,-789,1237,1298,-1635,-4188,-2022,-605,1205,991,-1332,-3804,-1402,-463,1142,617,-1001,-3107,-928
