t0_Ax,t0_Ay,t0_Az,t0_gyro_x,t0_gyro_y,t0_gyro_z,t1_Ax,t1_Ay,t1_Az,t1_gyro_x,t1_gyro_y,t1_gyro_z,t2_Ax,t2_Ay,t2_Az,t2_gyro_x,t2_gyro_y,t2_gyro_z,t3_Ax,t3_Ay,t3_Az,t3_gyro_x,t3_gyro_y,t3_gyro_z,t4_Ax,t4_Ay,t4_Az,t4_gyro_x,t4_gyro_y,t4_gyro_z,t5_Ax,t5_Ay,t5_Az,t5_gyro_x,t5_gyro_y,t5_gyro_z,t6_Ax,t6_Ay,t6_Az,t6_gyro_x,t6_gyro_y,t6_gyro_z,t7_Ax,t7_Ay,t7_Az,t7_gyro_x,t7_gyro_y,t7_gyro_z,t8_Ax,t8_Ay,t8_Az,t8_gyro_x,t8_gyro_y,t8_gyro_z,t9_Ax,t9_Ay,t9_Az,t9_gyro_x,t9_gyro_y,t9_gyro_z,t10_Ax,t10_Ay,t10_Az,t10_gyro_x,t10_gyro_y,t10_gyro_z,t11_Ax,t11_Ay,t11_Az,t11_gyro_x,t11_gyro_y,t11_gyro_z,t12_Ax,t12_Ay,t12_Az,t12_gyro_x,t12_gyro_y,t12_gyro_z,t13_Ax,t13_Ay,t13_Az,t13_gyro_x,t13_gyro_y,t13_gyro_z,t14_Ax,t14_Ay,t14_Az,t14_gyro_x,t14_gyro_y,t14_gyro_z,t15_Ax,t15_Ay,t15_Az,t15_gyro_x,t15_gyro_y,t15_gyro_z,t16_Ax,t16_Ay,t16_Az,t16_gyro_x,t16_gyro_y,t16_gyro_z,t17_Ax,t17_Ay,t17_Az,t17_gyro_x,t17_gyro_y,t17_gyro_z,t18_Ax,t18_Ay,t18_Az,t18_gyro_x,t18_gyro_y,t18_gyro_z,t19_Ax,t19_Ay,t19_Az,t19_gyro_x,t19_gyro_y,t19_gyro_z,t20_Ax,t20_Ay,t20_Az,t20_gyro_x,t20_gyro_y,t20_gyro_z,t21_Ax,t21_Ay,t21_Az,t21_gyro_x,t21_gyro_y,t21_gyro_z,t22_Ax,t22_Ay,t22_Az,t22_gyro_x,t22_gyro_y,t22_gyro_z,t23_Ax,t23_Ay,t23_Az,t23_gyro_x,t23_gyro_y,t23_gyro_z,t24_Ax,t24_Ay,t24_Az,t24_gyro_x,t24_gyro_y,t24_gyro_z,t25_Ax,t25_Ay,t25_Az,t25_gyro_x,t25_gyro_y,t25_gyro_z,t26_Ax,t26_Ay,t26_Az,t26_gyro_x,t26_gyro_y,t26_gyro_z,t27_Ax,t27_Ay,t27_Az,t27_gyro_x,t27_gyro_y,t27_gyro_z,t28_Ax,t28_Ay,t28_Az,t28_gyro_x,t28_gyro_y,t28_gyro_z,t29_Ax,t29_Ay,t29_Az,t29_gyro_x,t29_gyro_y,t29_gyro_z
931,-383,92,83,-52,-45,931,-376,86,92,-31,-25,937,-373,83,84,-29,-20,944,-370,76,73,-25,-11,953,-378,79,48,-16,-19,947,-375,78,37,-18,-27,946,-368,70,12,-12,-31,931,-371,35,-11,-14,-20,948,-358,-175,-84,48,43,959,-399,-397,-371,284,72,968,-529,-566,-793,551,-17,865,-644,-607,-1305,1114,-139,723,-746,-586,-1965,1578,-401,561,-886,-498,-2649,2016,-586,388,-1036,-449,-3295,2244,-788,248,-1163,-392,-3434,2514,-549,-56,-1217,-282,-3330,2677,-37,-509,-1424,-196,-3048,2744,829,-1511,-1968,548,-2204,2809,1784,-2238,-2321,909,-1378,29,899,-2646,-2883,666,222,-2447,71,-2484,-3613,-190,2159,-3758,-1308,-1989,-3573,-1616,3556,-4362,-3188,-1512,-2669,-2258,3722,-3582,-4167,-1030,-1649,-2102,2724,-2180,-4391,-708,-996,-1723,2218,-965,-3640,-483,-459,-1443,1437,-357,-2806,-356,-33,-1172,885,136,-1678,-208,192,-944,465,324,-715,25,376,-758,183,286,141
772,-668,137,-268,485,-40,720,-690,372,-331,311,-119,688,-673,450,-197,104,-119,677,-643,435,-17,-88,-89,691,-631,382,132,-201,-51,727,-632,283,291,-258,-8,777,-618,29,349,-242,35,847,-626,-351,46,52,-45,869,-671,-670,-500,539,-164,714,-747,-836,-1387,1175,-354,541,-935,-858,-2164,1703,-431,341,-1164,-751,-2894,2030,-467,177,-1376,-617,-3082,2323,-302,-56,-1544,-397,-3072,2587,14,-292,-1515,-112,-2641,2635,358,-487,-1551,139,-2526,2065,430,-674,-1833,569,-1913,1414,677,-735,-2267,844,-1039,71,175,-711,-2926,767,614,-1631,-781,-589,-3258,254,2416,-2980,-1938,-621,-3109,-823,3814,-3560,-3074,-591,-2605,-1448,3964,-3155,-3866,-544,-1684,-1675,3067,-2563,-4339,-406,-1028,-1545,2221,-1485,-3906,-319,-448,-1410,1578,-487,-2840,-222,-140,-1118,845,-62,-1911,-55,57,-841,352,153,-1005,134,229,-626,190,254,-250,319,332,-515,72,110,194,504,356,-450,140,108,634
609,-689,286,120,-276,32,659,-692,183,217,-192,80,661,-702,165,246,-119,97,671,-724,148,262,-132,114,683,-734,141,256,-130,120,696,-758,119,240,-135,114,714,-779,55,223,-93,108,774,-836,-164,131,-12,106,885,-932,-488,-151,260,-18,894,-1117,-751,-738,895,-303,818,-1320,-871,-1528,1555,-719,594,-1633,-808,-2580,2227,-1267,388,-1741,-686,-3051,2808,-1724,210,-1785,-502,-3293,3242,-2010,-26,-1689,-143,-2939,3103,-2035,-207,-1511,315,-2441,2487,-1897,-351,-1323,669,-1503,1652,-1181,-340,-1173,820,-686,750,-542,-311,-1160,865,54,-96,76,-195,-1398,907,822,-938,532,58,-1765,730,1921,-1816,707,318,-2119,276,3127,-2362,496,637,-2207,-511,4082,-2596,-117,892,-1790,-1281,4087,-2511,-995,854,-1029,-1625,3231,-1847,-1816,612,-464,-1484,2364,-1201,-1993,452,-86,-1194,1596,-575,-1625,379,114,-863,1140,-192,-1136,422,247,-700,758,-125,-623,555,297,-563,478,-37,-88
463,-1213,377,36,-577,-107,524,-1133,244,465,-829,-183,590,-1019,57,874,-956,-262,626,-906,-93,982,-893,-308,650,-828,-195,1010,-773,-319,659,-712,-285,826,-710,-365,671,-590,-384,548,-468,-282,653,-507,-440,197,-175,-112,643,-496,-489,-233,251,148,598,-515,-483,-809,802,330,551,-561,-472,-1304,1201,420,484,-732,-351,-1533,1663,753,371,-915,-121,-1488,1846,904,170,-1225,166,-1179,1778,1061,-138,-1710,500,-599,1176,987,-464,-2385,749,340,-380,224,-464,-2776,516,1729,-2221,-1416,-336,-2466,-400,3194,-3038,-2927,-292,-1746,-947,3355,-2734,-3488,-248,-1045,-1113,2674,-2039,-3729,-155,-490,-1039,1659,-1506,-3514,-168,-8,-968,941,-672,-2576,-91,214,-704,428,-252,-1422,63,259,-545,162,-136,-556,261,326,-410,66,-86,272,452,333,-384,39,-107,851,644,270,-351,13,-40,1353,799,177,-300,78,136,1748,949,3,-206,28,352,1994,952,-184,-129,169,595,2129,961,-361,-43,216,843,2161
724,-644,185,-200,216,-35,759,-636,162,-104,125,2,803,-621,107,-56,68,-1,830,-609,65,-52,64,-4,845,-600,30,-65,67,-11,886,-578,-55,-63,68,-13,938,-526,-204,-140,164,-21,968,-455,-375,-474,379,-37,1001,-453,-542,-1051,750,-107,955,-652,-650,-1781,1417,-134,802,-817,-558,-2277,2110,-226,570,-986,-346,-2207,2415,-154,214,-1183,13,-1614,2328,187,-216,-1352,353,-924,1810,268,-606,-1505,618,-246,714,178,-739,-1721,654,508,-680,199,-620,-2022,417,1602,-2288,-96,-397,-2150,-48,2891,-3246,-435,27,-2106,-879,3996,-3622,-717,433,-1819,-1375,3795,-3169,-1532,547,-1289,-1514,2991,-2442,-2543,460,-761,-1450,2481,-1460,-2549,316,-282,-1297,1858,-810,-2256,241,41,-1053,1223,-353,-1619,298,232,-841,848,-111,-907,441,310,-636,563,15,-228,618,324,-543,391,-69,130,756,252,-502,184,-42,345,834,231,-458,160,-7,452,835,201,-435,101,20,499
819,-612,-80,172,-103,19,819,-611,-88,132,-94,9,821,-611,-90,91,-78,1,822,-607,-89,63,-35,8,819,-611,-73,33,0,10,813,-614,-59,18,3,6,811,-614,-53,10,-3,6,812,-616,-48,6,3,8,811,-618,-41,8,8,6,809,-617,-39,8,7,4,808,-619,-40,14,13,8,809,-622,-39,17,14,13,812,-624,-39,16,12,11,808,-615,-44,9,8,7,805,-613,-53,-13,15,12,802,-615,-52,-20,39,28,804,-622,-53,-34,56,43,802,-626,-48,-33,85,61,801,-634,-46,-52,96,60,799,-636,-43,-69,98,51,800,-631,-60,-92,99,41,803,-629,-80,-152,111,22,808,-612,-134,-234,108,-21,790,-601,-189,-351,197,-16,751,-559,-262,-421,275,-25,684,-470,-398,-546,457,48,611,-428,-561,-934,901,251,467,-441,-680,-1742,1652,461,260,-575,-657,-2432,2350,895,-141,-902,-449,-2393,3137,2013
867,-526,-160,-18,46,36,872,-532,-152,-23,45,34,870,-532,-145,-24,38,23,865,-532,-142,-23,31,18,862,-536,-144,-28,24,16,861,-541,-144,-32,32,18,861,-544,-137,-32,37,18,861,-547,-134,-24,40,19,859,-544,-131,-22,35,14,861,-543,-135,-16,33,16,864,-541,-136,-16,37,16,862,-536,-137,-18,35,10,858,-520,-155,-36,23,0,847,-488,-244,-6,57,52,795,-440,-326,-16,290,218,717,-413,-457,-99,437,327,590,-378,-733,-407,821,605,455,-521,-1080,-1351,1741,783,391,-850,-1258,-2392,2637,806,268,-1189,-1192,-3147,3457,602,-318,-1821,-869,-3482,4085,875,-1557,-3053,314,-2491,3149,1005,-1919,-3772,349,-126,-46,-47,-1704,-3786,-530,2361,-2490,-2213,-1391,-3033,-1800,3676,-3183,-3624,-986,-1894,-2302,3761,-1804,-4024,-726,-1119,-1998,3334,-921,-3708,-578,-398,-1873,2579,-419,-3243,-464,99,-1351,1527,-28,-2035,-60,133,-1022,768,-139,-959
854,-580,-35,-27,-50,-26,862,-581,-53,-54,-52,-49,865,-576,-69,-95,-52,-77,865,-571,-88,-138,-41,-96,878,-571,-130,-170,-40,-110,942,-571,-253,-252,-21,-147,1084,-585,-526,-538,61,-319,1129,-575,-792,-1097,376,-575,1035,-582,-838,-1566,807,-567,925,-603,-785,-2180,1030,-672,827,-592,-704,-2784,971,-810,676,-544,-623,-3118,1052,-710,506,-520,-540,-3275,1122,-429,224,-564,-362,-3156,1326,195,-121,-637,-163,-2820,1166,1043,-411,-861,-117,-2542,806,1823,-738,-1279,-69,-2516,-83,2202,-842,-2186,47,-2135,-789,2058,-977,-3013,93,-1231,-2620,-537,-672,-3457,-753,988,-3525,-2582,-211,-3038,-1760,2839,-2973,-3806,-117,-2229,-2135,3264,-2142,-4264,-148,-1538,-1937,2660,-1090,-4376,-173,-1053,-1543,2261,-383,-3897,-104,-620,-1276,1665,-120,-3306,-101,-291,-966,1185,142,-2605,-72,45,-732,873,114,-1755,37,281,-585,685,17,-895,176,428,-520,561,-48,-215,368,498,-477,411,-71,418
749,-671,13,108,118,65,746,-677,19,56,81,48,743,-690,33,12,63,47,748,-700,39,-26,14,26,750,-695,31,-24,1,20,784,-697,-52,-42,-3,-3,864,-670,-280,-110,216,1,936,-664,-561,-458,713,-106,881,-724,-680,-989,1270,-268,763,-867,-714,-1713,1945,-464,642,-1027,-654,-2279,2501,-615,462,-1138,-482,-2591,2885,-815,227,-1248,-182,-2435,2961,-799,-126,-1356,219,-2016,2530,-689,-414,-1474,616,-1350,1776,-291,-573,-1604,887,-351,301,-36,-525,-1755,720,1024,-1639,295,-366,-1954,263,2218,-3010,469,-66,-1992,-397,3072,-3733,-26,204,-1645,-957,3213,-3658,-723,402,-1093,-1179,2856,-2727,-916,499,-746,-1102,2317,-1917,-930,542,-501,-859,1612,-1185,-861,608,-376,-670,1143,-784,-607,691,-289,-520,705,-462,-380,759,-240,-416,469,-274,-139,850,-233,-361,225,-129,60,899,-281,-305,59,4,198,927,-312,-258,-50,79,248,933,-334,-209,-143,102,265
866,-532,-106,-8,-14,16,864,-533,-109,-6,2,13,861,-538,-106,-4,11,12,863,-543,-107,3,13,11,863,-542,-113,0,10,7,863,-538,-131,-4,10,3,863,-532,-174,-31,24,2,869,-526,-335,-129,125,22,904,-525,-608,-306,407,54,881,-559,-872,-909,1037,44,779,-710,-958,-1657,1747,19,630,-950,-921,-2633,2462,-86,480,-1161,-696,-3052,2941,-232,232,-1415,-298,-3140,3067,-419,-51,-1587,248,-2427,2675,-368,-250,-1605,669,-1598,1878,-455,-313,-1539,943,-440,541,-584,-227,-1530,865,905,-840,-466,-57,-1628,472,2373,-2034,-254,136,-1741,28,3325,-2569,-215,421,-1618,-636,3931,-2660,-391,614,-1186,-1125,3440,-2287,-706,720,-734,-1300,2618,-1471,-838,672,-485,-1084,1907,-712,-649,680,-337,-760,1079,-372,-376,721,-286,-526,548,-194,-137,791,-266,-337,218,-77,77,887,-277,-248,48,-8,201,947,-292,-198,3,79,254,973,-300,-154,-18,119,251
891,-493,-132,94,3,45,894,-484,-316,67,55,159,910,-506,-351,-218,168,173,903,-572,-98,-463,301,133,848,-609,194,-410,272,64,792,-617,242,-74,-28,36,785,-633,-100,416,-235,194,954,-674,-866,50,73,198,981,-885,-1388,-952,873,32,793,-1265,-1526,-2547,1940,-284,548,-1677,-1376,-3744,2905,-598,109,-1962,-1009,-4005,3906,-782,-292,-1972,-346,-3504,4012,-1113,-489,-1856,178,-2479,3396,-837,-542,-1628,670,-1321,2369,-596,-536,-1375,895,-483,1386,-481,-471,-1169,1009,360,415,-39,-359,-1119,957,999,-384,457,-306,-1252,914,1716,-1220,1025,-256,-1609,775,2514,-2156,1366,-163,-2141,396,3560,-3167,1360,110,-2440,-536,4291,-3914,633,397,-1988,-1348,3987,-3333,-345,441,-1409,-1498,3407,-2376,-801,435,-885,-1474,2550,-1596,-1003,441,-504,-1321,1621,-1012,-942,491,-263,-1162,1015,-538,-649,528,-129,-940,560,-74,-231,598,-106,-753,205,119,67,664,-154,-584,-8,258,326
892,-500,5,-9,-8,29,897,-505,1,-17,-3,38,894,-509,-3,-24,9,54,885,-511,-6,-26,32,62,877,-519,-3,-28,54,75,871,-529,6,-28,49,71,866,-529,10,-30,40,69,866,-538,12,-28,32,62,861,-538,13,-19,34,55,861,-546,12,-17,32,51,863,-549,9,-14,33,43,868,-553,-7,-34,22,28,887,-563,-80,-53,28,19,944,-580,-266,-208,51,-44,1092,-666,-670,-680,214,-211,1208,-869,-981,-1347,637,-414,1240,-1222,-1148,-2391,1248,-914,1014,-1509,-1063,-3251,1989,-1330,560,-1686,-808,-3948,2812,-1758,-52,-1722,-356,-3940,3567,-1731,-741,-1634,379,-3149,3580,-1558,-1167,-1484,893,-1786,1851,-651,-1125,-1329,963,-629,220,310,-928,-1586,933,346,-1499,993,-704,-2203,634,1740,-2826,1260,-392,-2638,-288,3391,-4030,1059,180,-2223,-1344,3615,-3964,105,634,-1438,-1746,3413,-2894,-400,797,-921,-1716,2828,-1894,-680,764,-561,-1465,2078,-985,-759
882,-517,15,-41,9,-2,881,-516,19,-66,24,0,885,-521,44,-77,49,5,880,-524,75,-55,45,0,873,-522,91,-7,3,-3,867,-518,81,38,-44,-6,868,-514,44,58,-80,-7,881,-508,-32,40,-68,-5,885,-512,-66,-55,10,3,889,-529,-33,-151,78,0,866,-540,-7,-173,104,-2,852,-544,-174,-225,52,-45,909,-524,-620,-691,146,-209,845,-581,-1082,-1554,979,-214,628,-714,-1237,-2678,1842,-311,379,-908,-1231,-3857,2282,-431,158,-1121,-1116,-4439,2517,-186,-244,-1458,-856,-4247,2802,913,-781,-1949,-407,-3874,2591,1553,-1262,-2648,271,-2732,1084,1249,-1331,-3138,336,-947,-1546,-617,-1059,-3338,-199,1390,-3127,-2376,-722,-3012,-1286,3258,-3436,-3375,-518,-2251,-1854,3616,-2784,-3997,-509,-1303,-1890,2937,-2145,-4523,-348,-679,-1610,1915,-1160,-3857,-181,-383,-1200,1564,-143,-2478,-11,-146,-967,1076,-172,-1776,160,72,-787,719,-91,-947,320,225,-661,534,16,-230
879,-482,-238,2,2,25,879,-482,-242,-1,13,21,879,-486,-241,-8,33,27,868,-485,-237,-9,45,34,858,-479,-243,-27,39,44,848,-466,-257,-50,79,74,830,-460,-265,-75,128,142,791,-430,-313,-89,170,211,715,-366,-450,-115,357,371,568,-336,-601,-238,725,624,404,-363,-710,-595,1178,926,242,-553,-822,-1158,1765,1207,135,-855,-876,-1794,2342,1321,11,-1262,-831,-2232,3089,1467,-270,-1572,-626,-2385,3642,1510,-894,-1896,-46,-2333,3848,1767,-1450,-2232,666,-1385,1837,1043,-1569,-2552,601,8,-838,-136,-1681,-2799,153,2002,-2940,-2187,-1615,-2509,-665,2986,-4052,-3551,-1172,-1885,-1113,2950,-3649,-3652,-894,-1390,-1142,2320,-2785,-3295,-580,-924,-1053,1831,-1740,-2574,-334,-562,-1009,1284,-873,-1723,-38,-359,-944,719,-132,-833,205,-274,-803,293,368,-62,437,-324,-596,-134,850,616,573,-417,-431,-481,1063,999,673,-507,-258,-587,1244,1368,688,-591,-115,-708,1319,1680
823,-703,-420,-124,96,-164,856,-702,-505,-398,238,-259,879,-702,-582,-720,437,-373,866,-704,-611,-1025,664,-442,823,-696,-604,-1355,839,-518,750,-646,-576,-1672,923,-578,633,-542,-499,-1985,942,-520,565,-502,-418,-2206,940,-300,499,-541,-289,-2267,1065,122,402,-586,-111,-2027,1203,608,281,-667,106,-1735,1164,1105,214,-836,258,-1416,866,1415,181,-1054,358,-1075,264,1425,196,-1284,340,-591,-319,1252,198,-1469,320,-159,-874,941,219,-1641,192,423,-1541,415,268,-1730,4,1011,-2085,-156,357,-1735,-319,1846,-2447,-731,485,-1642,-617,2214,-2449,-1315,561,-1411,-761,2212,-2043,-1826,550,-1057,-809,1979,-1672,-2138,480,-663,-704,1526,-1271,-2131,457,-374,-603,1164,-961,-1824,493,-197,-472,763,-668,-1297,572,-123,-389,536,-477,-846,638,-64,-323,342,-284,-419,732,-39,-286,222,-205,-58,838,-54,-276,93,-143,165,921,-125,-270,48,-28,323,969,-152,-251,54,46,388,978,-189,-233,0,49,392
865,-520,-163,143,-26,11,872,-528,-163,183,-51,3,884,-531,-172,207,-77,-14,891,-541,-177,233,-88,-41,910,-537,-234,218,-128,-107,951,-507,-366,64,-96,-213,989,-477,-509,-177,17,-315,998,-430,-625,-524,182,-385,965,-410,-656,-928,402,-371,906,-416,-619,-1266,558,-325,821,-409,-538,-1608,619,-284,742,-381,-451,-1864,572,-201,704,-387,-358,-2072,500,-39,681,-388,-272,-2091,463,167,664,-408,-184,-1990,493,443,676,-483,-107,-1822,553,727,645,-553,13,-1481,628,1052,575,-609,123,-1134,562,1296,472,-714,222,-868,318,1476,429,-892,228,-631,-78,1563,374,-1139,201,-342,-428,1510,363,-1350,146,-43,-929,1145,354,-1451,50,378,-1274,756,327,-1539,-66,686,-1560,241,333,-1600,-196,1023,-1804,-282,380,-1582,-367,1241,-2032,-1016,431,-1436,-557,1401,-1952,-1616,480,-1140,-686,1186,-1742,-2138,469,-867,-701,917,-1311,-2363,418,-577,-613,883,-944,-2279
888,-493,-243,12,54,87,906,-492,-306,-45,86,70,949,-488,-446,-176,178,16,962,-456,-632,-422,453,7,950,-478,-791,-875,746,-49,878,-584,-864,-1503,1128,-67,829,-739,-847,-2078,1442,-120,755,-822,-734,-2628,1640,-283,723,-948,-615,-2925,1866,-265,568,-1028,-379,-2926,2163,-163,346,-1092,-27,-2793,2255,-36,191,-1116,339,-2194,1927,81,48,-1150,560,-1426,1185,149,21,-1148,657,-757,418,144,8,-1182,678,-125,-355,115,96,-1367,636,632,-1045,134,200,-1501,423,1670,-1700,208,371,-1597,77,2600,-2209,226,565,-1563,-379,3097,-2461,-80,772,-1400,-741,3102,-2455,-557,869,-1099,-962,2844,-1865,-973,852,-784,-991,2445,-1333,-1183,735,-458,-887,1940,-872,-1169,655,-203,-750,1366,-593,-963,634,-79,-609,1018,-358,-570,679,-26,-482,675,-238,-192,758,-22,-390,442,-184,74,866,-67,-325,252,-130,295,939,-138,-270,178,7,462,963,-194,-204,344,235,643
869,-536,34,-52,54,29,867,-531,33,-66,80,37,862,-531,45,-76,97,48,861,-540,67,-71,95,50,857,-546,89,-48,73,51,855,-554,94,-23,17,43,859,-551,69,-1,-21,31,870,-551,46,-3,-6,34,867,-552,49,-13,6,23,865,-549,4,-34,22,-3,861,-529,-85,-125,95,-25,856,-525,-179,-307,238,-17,850,-541,-280,-582,421,-60,821,-565,-352,-960,641,-147,810,-592,-446,-1439,975,-242,787,-646,-509,-1988,1215,-351,769,-749,-520,-2367,1585,-303,646,-769,-425,-2664,1761,-283,509,-877,-279,-2623,1987,158,257,-915,-58,-2346,2120,603,-72,-1088,175,-2038,1865,1076,-367,-1300,414,-1617,1351,1350,-555,-1583,573,-1173,57,964,-595,-1794,549,-355,-1281,303,-458,-2030,291,830,-2655,-430,-84,-2093,-230,2072,-3247,-1017,239,-1888,-621,2745,-3047,-1497,379,-1464,-851,2865,-2481,-1925,384,-1015,-903,2544,-2021,-2148,363,-578,-802,1923,-1482,-1935
671,-764,41,85,11,-66,697,-765,1,3,82,-61,706,-772,-17,-69,162,-66,739,-778,-93,-174,244,-105,749,-783,-148,-313,394,-139,810,-823,-336,-554,618,-292,802,-856,-516,-1012,994,-466,732,-928,-649,-1555,1500,-644,627,-1092,-634,-2165,2045,-704,565,-1184,-543,-2607,2321,-932,502,-1272,-457,-3040,2484,-1191,311,-1295,-265,-2990,2797,-1056,50,-1329,204,-2308,2696,-596,-129,-1305,499,-1508,1935,-300,-207,-1196,665,-643,905,-1,-210,-1130,673,18,26,305,-177,-1220,658,616,-859,598,-87,-1398,502,1303,-1560,828,76,-1595,248,2043,-2319,862,335,-1645,-205,2773,-2905,687,551,-1531,-451,2929,-2881,347,673,-1289,-637,2874,-2612,-145,748,-1000,-759,2551,-2281,-448,770,-699,-758,2002,-1725,-672,772,-455,-727,1544,-1268,-673,760,-293,-614,1029,-678,-418,777,-254,-493,735,-266,-82,824,-261,-340,357,29,174,864,-307,-201,107,202,342,898,-374,-79,-71,293,400
829,-609,-45,39,-24,10,825,-604,-45,38,-24,2,822,-609,-45,33,-30,0,818,-610,-48,38,-28,-4,817,-612,-52,37,-30,-1,818,-610,-64,27,-24,-1,818,-613,-73,9,-8,3,835,-616,-136,-9,26,0,867,-622,-310,-130,189,-3,924,-638,-567,-389,430,-74,905,-692,-780,-915,920,-152,826,-856,-881,-1735,1447,-313,761,-1088,-871,-2552,1875,-512,650,-1189,-781,-3225,2203,-792,555,-1281,-672,-3629,2476,-877,333,-1396,-352,-3452,2898,-636,58,-1485,136,-3002,2702,-662,-155,-1438,587,-1823,1855,-294,-209,-1346,738,-802,816,49,-189,-1330,770,166,-320,312,-75,-1443,696,1120,-1306,574,29,-1622,482,2151,-2188,592,80,-1752,163,3025,-2838,514,253,-1812,-427,3701,-3200,220,509,-1549,-945,3380,-3054,-489,710,-1103,-1205,2755,-2208,-1074,700,-728,-1061,2282,-1101,-1028,691,-490,-888,1562,-658,-961,686,-314,-671,1075,-169,-597,709,-217,-494,741,37,-240
833,-564,-8,-50,-16,13,836,-570,-26,-79,-15,18,833,-566,-54,-95,10,36,832,-555,-71,-158,46,49,830,-572,-63,-224,82,69,843,-608,-28,-234,112,83,844,-631,25,-201,85,54,843,-633,33,-142,12,10,832,-615,-7,-53,-23,-13,837,-583,-160,-76,-31,-58,835,-517,-471,-339,215,-76,763,-436,-780,-866,587,-46,658,-500,-997,-1699,1123,122,502,-637,-1023,-2469,1718,261,381,-892,-940,-2988,2135,403,192,-1109,-693,-3111,2337,706,-43,-1304,-431,-2946,2380,1079,-311,-1528,-75,-2584,1976,1236,-525,-1760,261,-2099,1037,1156,-592,-2088,449,-884,-481,656,-609,-2317,276,165,-2188,-606,-447,-2492,-282,1771,-3221,-1683,-223,-2333,-862,2842,-3178,-2479,-96,-1880,-1183,3265,-2655,-2993,-21,-1341,-1227,2945,-2030,-3086,44,-887,-1070,2519,-1210,-2558,135,-544,-899,1875,-878,-2006,245,-273,-801,1289,-769,-1411,416,-107,-669,721,-483,-768,558,-36,-516,430,-112,-166,703,-39,-379,60,38,238
870,-523,-164,-4,-16,12,876,-522,-179,-51,24,13,872,-522,-169,-93,69,13,874,-528,-156,-131,92,9,866,-526,-135,-138,113,11,864,-509,-191,-161,82,-5,854,-430,-448,-378,200,19,762,-340,-825,-928,612,69,613,-376,-1022,-1708,1191,276,453,-568,-1043,-2423,1838,519,390,-850,-936,-2919,2108,655,304,-1046,-783,-3004,2231,777,151,-1204,-614,-3017,2157,855,-47,-1410,-361,-2443,2204,1312,-272,-1424,-76,-2006,1828,1372,-436,-1470,175,-1562,1040,1446,-497,-1579,295,-1068,142,1225,-597,-1704,335,-528,-1108,531,-669,-1965,165,143,-2409,-215,-529,-2223,-279,1122,-3488,-1227,-459,-2106,-613,1562,-3813,-2498,-519,-1801,-794,2160,-3543,-3093,-547,-1392,-964,2253,-3374,-3438,-369,-934,-1037,1893,-2798,-3200,-188,-593,-995,1642,-1697,-2407,6,-356,-944,1188,-1004,-1648,208,-262,-789,830,-241,-819,385,-211,-651,540,43,-243,618,-269,-551,208,140,201,791,-346,-480,72,200,400
843,-528,-268,-64,2,0,843,-527,-268,-72,54,22,842,-539,-265,-106,61,18,837,-539,-256,-111,83,25,827,-535,-263,-120,41,17,830,-513,-462,-169,-15,-12,846,-462,-828,-485,269,37,885,-501,-1175,-1201,940,110,900,-712,-1307,-2082,1632,48,810,-1000,-1212,-2974,2385,-120,654,-1231,-947,-3541,2897,-279,417,-1255,-592,-3501,3172,-488,123,-1230,-216,-3014,3260,-274,-256,-1177,276,-2165,2742,4,-533,-1255,556,-1462,1671,305,-619,-1375,683,-614,102,629,-610,-1597,688,413,-1624,842,-544,-1926,510,1844,-3090,847,-436,-2124,-85,3090,-4212,484,-153,-2109,-607,3763,-4251,67,77,-1878,-979,3749,-3839,-484,199,-1428,-1284,2958,-3575,-1067,344,-983,-1330,2059,-2217,-1051,382,-718,-1184,1491,-1012,-771,449,-517,-891,879,-145,-386,567,-444,-642,436,180,-79,737,-430,-444,77,294,145,840,-451,-292,-89,420,268,889,-460,-146,-99,486,320,901,-458,-64,-117,413,279
897,-497,-67,-8,-4,-1,899,-498,-72,0,2,-10,892,-497,-73,4,17,-15,887,-498,-74,3,13,-12,887,-499,-75,0,6,-8,889,-496,-75,0,4,-3,894,-499,-75,-4,0,0,897,-499,-89,-6,7,-7,901,-497,-137,-42,-4,-24,929,-504,-271,-123,113,-5,981,-538,-522,-377,338,-29,1076,-665,-868,-1026,805,-240,1045,-847,-1014,-1698,1504,-414,901,-1090,-936,-2656,2154,-805,748,-1268,-730,-3497,2506,-1191,596,-1446,-536,-3926,2956,-1368,222,-1546,-172,-3660,3320,-1322,-356,-1477,454,-2706,2928,-1189,-673,-1340,818,-1605,1552,-574,-662,-1284,856,-605,175,307,-585,-1363,787,359,-1283,946,-505,-1633,683,1446,-2583,1214,-513,-1889,345,2573,-3769,996,-289,-2069,-316,3470,-4290,682,81,-1807,-812,3587,-3694,293,422,-1577,-1056,3169,-2947,-19,603,-1251,-1080,2564,-1923,-400,675,-973,-1025,1870,-1259,-621,691,-677,-829,1291,-574,-543,708,-481,-596,791,-191,-311
840,-560,-159,-263,75,73,860,-605,-106,-289,141,74,858,-618,-42,-279,102,30,841,-608,-11,-226,74,0,811,-597,-6,-140,45,4,791,-584,-121,-119,-26,-18,724,-495,-414,-318,20,-4,641,-390,-713,-738,330,87,524,-387,-973,-1335,1032,385,385,-565,-1105,-2205,1766,549,290,-849,-1133,-3027,2305,667,251,-1158,-1052,-3376,2675,917,32,-1346,-788,-3230,2970,1236,-274,-1596,-490,-2943,2911,1545,-656,-1793,55,-2280,2140,1515,-848,-1947,332,-1331,419,1108,-901,-2075,286,-246,-1181,587,-1053,-2217,77,666,-2991,-521,-1153,-2307,-400,1497,-4084,-1669,-1215,-2016,-909,1953,-4787,-2635,-1126,-1527,-1088,1644,-4651,-3259,-974,-1111,-1044,1492,-3854,-3379,-713,-788,-1090,1549,-2924,-2889,-443,-639,-1096,1234,-1905,-2117,-203,-535,-1121,1037,-1102,-1435,-12,-458,-1056,711,-237,-662,159,-452,-938,411,318,-64,356,-528,-799,64,716,418,527,-647,-662,-153,985,645,632,-699,-521,-229,1152,670
782,-542,-261,-122,87,-2,784,-539,-263,-62,53,0,783,-531,-273,6,4,1,797,-537,-305,37,-32,6,814,-548,-338,48,-6,5,813,-536,-364,29,20,-14,815,-520,-428,-20,58,-29,803,-482,-535,-147,219,-5,786,-429,-663,-340,448,50,726,-353,-853,-711,754,155,671,-393,-1081,-1313,1120,255,717,-668,-1295,-2067,1640,331,683,-884,-1313,-2683,2207,229,576,-1169,-1184,-3181,2856,164,317,-1392,-877,-3252,3464,212,-112,-1517,-323,-2877,3599,356,-545,-1470,238,-1912,2874,592,-670,-1381,473,-1166,1499,500,-649,-1304,523,-530,79,386,-630,-1412,429,-26,-986,578,-580,-1887,311,671,-2112,570,-603,-2211,61,1895,-3346,147,-434,-2414,-587,3453,-4203,-26,0,-2209,-1206,3873,-4194,-523,327,-1752,-1411,3580,-3265,-960,428,-1332,-1338,2945,-2602,-1347,444,-903,-1263,2202,-1897,-1464,491,-482,-1193,1088,-1354,-1214,520,-314,-849,891,-132,-519,574,-223,-475,421,256,-73
806,-559,45,-21,-43,8,816,-521,-76,-95,-9,42,809,-542,-249,-276,293,189,739,-574,-445,-590,469,217,662,-734,-696,-1225,754,283,502,-917,-779,-1675,1260,359,266,-1174,-732,-2126,1891,484,13,-1381,-583,-2260,2388,617,-203,-1506,-332,-2306,2486,599,-272,-1445,-207,-2139,2140,544,-258,-1379,-147,-1921,1981,571,-240,-1334,-51,-1668,1839,633,-189,-1299,69,-1487,1594,568,-139,-1259,243,-1233,1218,555,-185,-1306,447,-1050,731,473,-323,-1481,631,-688,-93,223,-559,-1674,638,-76,-1165,-151,-946,-2069,421,777,-2618,-744,-1291,-2459,87,1630,-3787,-1483,-1384,-2684,-331,2237,-4441,-2358,-1242,-2672,-620,3015,-3972,-2768,-1120,-2308,-749,3439,-3254,-2799,-814,-1822,-786,3345,-2649,-2555,-486,-1383,-811,2941,-2110,-2164,-148,-964,-758,2303,-1359,-1622,114,-696,-682,1610,-776,-1175,350,-494,-563,987,-151,-690,528,-339,-408,557,277,-289,683,-258,-234,107,465,95,794,-281,-80,-169,542,308
739,-759,138,-388,74,117,800,-732,72,-246,48,119,810,-712,36,-200,-9,68,807,-708,-5,-150,-32,44,795,-710,-21,-101,-5,43,781,-696,-32,-56,-15,25,780,-685,-54,-31,-29,12,781,-669,-76,-19,-27,4,776,-656,-90,-31,-28,9,775,-653,-101,-51,-13,16,769,-656,-95,-63,4,28,760,-660,-89,-83,13,32,738,-679,-47,-70,73,92,657,-698,41,-54,175,183,571,-788,189,-45,196,293,568,-891,251,170,6,317,686,-913,106,416,-384,119,805,-813,-107,450,-586,-135,888,-681,-298,389,-375,-163,870,-589,-350,182,-75,-165,703,-565,-244,-140,363,-23,189,-870,38,-619,812,343,-728,-1990,884,72,-697,449,-1257,-2767,205,2031,-2710,-281,-1131,-2842,-806,3553,-4005,-962,-1005,-2168,-1405,3333,-4408,-1818,-754,-1532,-1563,2401,-4131,-2400,-472,-1039,-1500,2089,-2540,-2037,-266,-790,-1358,1394,-1592,-1420,-3,-605,-1106,734,-792,-746
804,-685,-128,-388,208,148,804,-681,-142,-288,135,108,793,-672,-145,-204,92,86,815,-661,-180,-114,38,33,825,-628,-202,-56,27,12,831,-601,-233,-17,30,1,819,-584,-240,-23,48,1,802,-573,-231,-33,92,32,775,-565,-187,-59,225,104,629,-628,-85,-129,664,384,373,-796,125,-156,1067,861,18,-1060,396,4,832,1228,-330,-1451,448,431,-492,1094,-611,-1894,196,1294,-2203,701,-926,-2270,-324,2047,-3717,-551,-1057,-2340,-889,2798,-4518,-1520,-1057,-1991,-1330,3024,-5027,-2617,-863,-1409,-1520,2258,-4694,-2895,-555,-945,-1564,1558,-3192,-2601,-399,-681,-1388,1171,-1744,-1954,-183,-504,-1189,687,-881,-1261,-2,-396,-1021,415,-245,-675,205,-351,-870,186,134,-117,390,-404,-791,0,332,239,556,-431,-687,-8,603,515,665,-481,-601,-180,657,581,706,-506,-530,-215,797,630,729,-511,-441,-244,946,684,752,-532,-355,-288,1017,735,786,-574,-262,-345,961,709
531,-901,-141,-640,795,265,536,-880,-137,-607,694,195,538,-879,-127,-513,634,220,547,-869,-130,-452,516,170,548,-863,-125,-374,410,149,558,-854,-140,-288,284,120,570,-845,-154,-228,172,85,576,-831,-170,-164,101,67,574,-827,-178,-125,37,54,554,-826,-154,-77,-18,58,516,-842,-119,-33,-94,61,435,-905,-52,37,-182,89,373,-1016,6,179,-420,52,320,-1124,14,355,-737,-73,313,-1213,-59,675,-1126,-325,303,-1240,-132,976,-1360,-490,305,-1246,-256,1273,-1480,-616,278,-1286,-289,1417,-1611,-785,319,-1325,-400,1623,-1782,-1125,384,-1295,-479,1779,-1741,-1442,474,-1166,-583,1916,-1587,-1791,534,-941,-730,1938,-1310,-1949,563,-603,-800,1732,-911,-1965,561,-364,-719,1511,-457,-1629,612,-220,-607,1131,-248,-1257,664,-108,-486,788,-152,-914,717,-57,-402,514,-98,-603,773,-28,-317,265,-105,-346,828,-20,-277,175,-39,-61,911,-53,-234,21,-30,103
678,-804,-237,-2458,1163,287,616,-876,-125,-2269,986,282,595,-888,-68,-1972,685,219,592,-869,-31,-1659,530,376,626,-847,-26,-1277,437,616,648,-859,-31,-1055,447,701,666,-897,-2,-864,408,649,696,-920,-1,-704,317,514,730,-913,-14,-514,225,370,740,-871,-36,-384,145,223,743,-818,-69,-285,87,117,726,-758,-108,-222,67,51,684,-718,-126,-238,30,22,644,-729,-139,-260,-3,31,597,-764,-112,-258,4,114,478,-878,-24,-193,118,399,313,-1193,137,-90,73,609,-2,-1694,299,359,-355,507,-405,-2768,228,1243,-1318,94,-861,-3643,-402,3097,-2953,-1138,-1037,-3605,-1383,4157,-3906,-2045,-1180,-3032,-1986,4808,-3804,-2522,-1199,-2178,-2064,4317,-3883,-2944,-883,-1322,-1928,3382,-2849,-2720,-491,-831,-1746,2610,-1842,-2027,-241,-439,-1663,1719,-1223,-1481,-20,-183,-1347,861,-505,-878,175,-27,-1137,434,-13,-310,363,5,-954,71,360,208,465,-48,-827,-237,630,480
887,-537,-278,-148,109,-73,930,-491,-420,-359,281,-97,947,-463,-546,-632,503,-80,921,-491,-636,-1030,769,-95,813,-515,-668,-1461,991,-137,681,-541,-677,-1861,1129,-101,560,-618,-638,-2184,1398,74,450,-713,-556,-2377,1539,310,355,-855,-466,-2355,1692,662,253,-993,-351,-2166,1812,1050,133,-1074,-187,-1871,1718,1233,67,-1157,-72,-1711,1331,1078,22,-1212,71,-1399,881,961,-33,-1244,193,-1075,447,977,-119,-1409,250,-709,-85,980,-209,-1523,248,-393,-866,560,-315,-1644,116,21,-1811,-97,-390,-1694,-75,757,-2692,-663,-410,-1687,-302,1399,-3289,-1044,-341,-1668,-535,1720,-3623,-1555,-203,-1611,-680,1804,-3442,-2026,-27,-1481,-777,1950,-2831,-2369,78,-1287,-789,1934,-2203,-2572,156,-915,-826,1788,-1685,-2597,230,-564,-812,1426,-1117,-2256,335,-260,-734,1006,-581,-1635,466,-143,-602,606,-211,-1052,598,-69,-464,314,-46,-566,719,-41,-365,141,18,-194,844,-57,-270,0,24,73
943,-393,-46,51,3,69,948,-390,-49,25,1,51,947,-392,-50,0,10,45,940,-393,-46,-23,24,41,934,-404,-43,-39,34,47,921,-400,-39,-44,20,51,931,-418,-48,-62,3,62,930,-428,-44,-49,14,58,925,-432,-48,-18,-19,56,932,-418,-148,42,-67,99,1003,-397,-602,-133,-53,208,1105,-413,-1408,-918,393,121,1044,-819,-2246,-2564,1498,-70,744,-1655,-2473,-3834,3030,-263,113,-2404,-1950,-4650,4048,-1253,-789,-2963,-1058,-4389,4129,-980,-1516,-3331,70,-2718,2507,-613,-1725,-3182,547,-47,-502,-459,-1918,-3616,177,2273,-2593,139,-1827,-3790,-1097,3761,-3939,-570,-1362,-3072,-2068,4230,-3882,-1319,-924,-2056,-2452,3070,-3103,-1518,-437,-1499,-2069,2303,-1673,-1229,-99,-1190,-1433,1211,-582,-891,103,-979,-988,805,-21,-614,295,-738,-692,505,233,-346,480,-642,-563,307,246,-145,667,-591,-506,190,280,-8,779,-564,-438,117,348,64,832,-547,-361,70,394,45
492,-879,347,-321,122,47,542,-851,296,-257,58,-52,586,-820,268,-191,43,-120,611,-799,247,-135,76,-139,620,-786,255,-120,93,-169,633,-778,242,-113,113,-198,632,-772,233,-98,132,-206,615,-769,244,-58,156,-180,584,-760,274,-17,149,-171,524,-773,308,42,160,-105,417,-810,362,86,197,55,187,-887,444,171,263,298,-254,-1087,588,144,-77,353,-850,-1758,763,783,-1741,600,-1172,-2518,99,2495,-3335,580,-1051,-2665,-989,3773,-4361,-30,-601,-2216,-1620,3973,-4274,-559,-243,-1520,-1813,3119,-3654,-1282,47,-962,-1638,2104,-2552,-1201,233,-686,-1340,1353,-1283,-715,437,-568,-946,660,-488,-264,623,-498,-660,288,-73,-10,747,-486,-422,-11,95,126,838,-497,-315,-100,150,141,872,-467,-227,-100,241,158,886,-457,-169,-86,300,168,887,-442,-121,-50,302,169,896,-447,-104,-82,230,156,916,-466,-102,-102,153,134,924,-475,-103,-104,129,103
811,-569,-344,-291,60,80,800,-565,-336,-292,125,78,797,-565,-327,-290,150,63,790,-560,-301,-250,189,64,793,-565,-271,-190,177,57,801,-565,-246,-91,136,32,806,-569,-234,23,66,-8,812,-568,-244,115,4,-45,805,-565,-256,207,-42,-74,796,-559,-279,255,-90,-91,800,-565,-306,284,-112,-97,805,-560,-334,305,-105,-107,811,-547,-362,296,-73,-97,805,-523,-404,255,-63,-91,775,-478,-571,255,92,51,680,-392,-828,51,364,218,537,-340,-1163,-662,844,412,361,-471,-1363,-1553,1530,641,122,-766,-1376,-2547,2333,868,-72,-1219,-1180,-3278,2930,1114,-258,-1595,-878,-3389,3102,1296,-566,-1823,-468,-2731,3076,1671,-854,-2007,4,-2033,2449,1611,-980,-2071,404,-1098,535,665,-950,-2242,295,-49,-1408,-407,-852,-2441,-107,1404,-3016,-1637,-797,-2365,-681,2665,-3793,-2723,-790,-1829,-1163,3196,-3933,-3477,-725,-1320,-1240,2919,-3426,-3285,-455,-930,-1297,2399,-2647,-2734,-236,-711,-1250,1952,-1693,-1965
787,-627,-258,32,-14,-16,782,-615,-276,22,-24,-21,779,-605,-287,-12,-12,-16,776,-605,-288,-41,4,-2,771,-611,-287,-76,30,0,761,-609,-288,-94,57,19,754,-613,-294,-127,95,39,744,-605,-308,-152,129,65,727,-572,-355,-184,181,104,671,-502,-428,-200,375,263,678,-595,-441,-391,572,444,701,-745,-314,-481,736,496,722,-835,-156,-605,498,290,751,-813,-155,-528,177,71,760,-667,-381,-460,185,78,775,-506,-793,-730,785,202,661,-480,-987,-1340,1830,342,498,-620,-900,-1946,2784,490,364,-827,-684,-2361,3148,496,170,-1046,-479,-2139,3239,792,-175,-1301,-126,-1674,2882,888,-459,-1419,195,-1059,1915,747,-634,-1408,398,-444,433,514,-654,-1497,383,103,-1101,425,-604,-1677,180,877,-2624,169,-546,-1804,-125,1580,-3764,-307,-474,-1831,-525,2416,-4394,-798,-345,-1701,-839,2744,-4514,-1306,-186,-1396,-1041,2530,-4143,-1789,1,-1041,-1104,2119,-3262,-1737
713,-727,-108,-106,80,-4,704,-721,-111,-123,75,-12,711,-723,-131,-153,65,-14,716,-723,-134,-174,79,-15,716,-714,-129,-178,106,-1,715,-716,-116,-179,124,12,718,-728,-102,-165,117,20,714,-730,-97,-137,92,9,709,-723,-100,-107,73,8,712,-714,-115,-80,54,8,740,-691,-195,-89,71,-10,763,-638,-367,-199,289,23,768,-566,-550,-399,620,69,744,-516,-707,-925,888,5,725,-531,-861,-1542,1202,-58,690,-644,-986,-2251,1571,-95,656,-836,-1020,-2675,2130,74,594,-995,-911,-2860,2662,263,327,-1235,-723,-2633,3096,590,-255,-1501,-187,-2114,2950,606,-700,-1710,369,-1195,1605,605,-757,-1771,400,-68,-218,614,-694,-1878,208,1037,-2119,382,-661,-1981,-52,2069,-3382,26,-587,-2165,-505,3123,-4181,-240,-412,-2116,-938,3350,-4465,-924,-150,-1797,-1213,2842,-4045,-1960,42,-1356,-1378,2566,-2944,-2202,107,-896,-1345,2024,-1870,-1908,183,-518,-1229,1289,-1147,-1424,245,-315,-1002,622,-449,-702
851,-455,-583,-504,489,170,807,-477,-730,-896,808,238,740,-528,-911,-1528,1292,248,676,-679,-1007,-2301,1745,253,658,-947,-1049,-2861,2278,258,611,-1141,-1047,-3355,2639,-41,435,-1316,-943,-3467,3101,17,59,-1443,-542,-3076,3172,268,-269,-1495,-59,-2212,2572,558,-429,-1495,220,-1394,1483,513,-481,-1443,330,-734,381,344,-550,-1435,352,-98,-740,427,-592,-1620,311,525,-1862,606,-657,-1971,87,1533,-3304,269,-682,-2389,-327,2725,-4271,-470,-599,-2545,-809,3613,-4709,-1264,-451,-2348,-1307,3877,-4629,-1890,-241,-1719,-1585,3276,-3899,-2299,-101,-1210,-1489,2453,-2771,-2185,-4,-816,-1255,1759,-1668,-1718,54,-465,-1095,1127,-1022,-1159,232,-293,-981,646,-425,-384,471,-306,-792,216,-96,105,659,-342,-686,1,89,386,770,-381,-579,-189,318,549,833,-405,-483,-276,482,638,905,-446,-388,-352,604,668,916,-473,-300,-361,679,614,912,-496,-201,-420,613,474,915,-501,-134,-426,477,342
908,-459,-107,214,-45,8,921,-451,-145,211,-52,9,924,-440,-157,173,-47,5,924,-442,-153,129,-56,4,924,-447,-144,100,-51,-5,931,-444,-169,67,-66,-22,973,-426,-279,4,-45,-48,1071,-391,-578,-330,35,-149,1160,-364,-925,-926,313,-298,1128,-410,-1205,-1886,825,-433,985,-574,-1271,-2927,1317,-534,712,-750,-1137,-3706,1896,-417,431,-855,-899,-3975,2276,-237,7,-1121,-524,-3722,2502,430,-327,-1366,-41,-3084,1856,625,-555,-1516,216,-2226,582,772,-608,-1609,282,-1406,-702,946,-461,-1710,240,-607,-1994,858,-427,-2222,86,507,-3115,412,-413,-2316,-530,1611,-4115,-611,-167,-2263,-1068,2841,-3927,-1356,63,-1889,-1352,3143,-3296,-1845,284,-1398,-1471,3062,-2288,-2151,325,-886,-1267,2368,-1470,-2003,394,-543,-1002,1551,-906,-1621,456,-294,-754,872,-655,-1232,573,-202,-488,383,-427,-662,683,-180,-297,166,-328,-278,843,-201,-205,37,-292,46,920,-224,-150,-7,-103,297
954,-383,-55,-45,-2,-32,959,-378,-53,-46,-9,-48,964,-389,-41,68,40,-112,958,-359,-44,55,-14,-170,957,-332,-51,18,-6,-138,953,-319,-54,-23,10,-75,968,-324,-75,-45,13,-35,1034,-318,-209,-125,78,-16,1159,-295,-484,-291,324,-12,1320,-312,-851,-865,694,-201,1377,-494,-1104,-1721,1295,-487,1272,-860,-1148,-2680,1893,-921,1047,-1243,-958,-3658,2345,-1577,752,-1469,-714,-4110,2706,-1798,98,-1638,-99,-3674,3048,-1280,-380,-1609,442,-2602,2248,-1212,-494,-1446,582,-1600,1340,-674,-575,-1307,629,-684,361,32,-666,-1321,652,39,-663,618,-770,-1643,593,1315,-2265,1297,-765,-2108,140,2721,-3649,1599,-394,-2426,-461,3763,-4469,1291,107,-2341,-1049,4094,-4228,703,555,-1916,-1536,3496,-3370,-108,662,-1409,-1467,2819,-1976,-608,619,-970,-1156,2026,-1089,-772,616,-639,-915,1207,-822,-837,690,-402,-675,698,-471,-553,768,-296,-462,357,-209,-252,848,-248,-348,120,-114,-60
951,-364,6,3,2,-4,949,-357,0,0,-2,-2,947,-347,-11,-16,0,2,953,-332,-83,-69,-3,2,923,-320,-120,-150,87,30,864,-356,-263,-287,150,-34,782,-383,-463,-562,306,-115,753,-436,-729,-1285,728,-220,766,-612,-837,-2264,1380,-162,704,-709,-825,-3284,1707,-41,654,-811,-845,-3796,1742,162,515,-1079,-814,-4027,1870,533,343,-1374,-727,-3881,1986,732,100,-1609,-562,-3378,1892,804,-185,-1726,-270,-2833,1639,960,-447,-1868,93,-1924,1304,1352,-664,-1872,364,-960,-96,948,-764,-1965,224,-13,-1509,323,-847,-2296,-56,1066,-3022,-592,-871,-2593,-477,2115,-4102,-1921,-760,-2466,-1095,3348,-4330,-2978,-611,-1939,-1394,3512,-3824,-3326,-431,-1350,-1446,3172,-2540,-3011,-237,-865,-1311,2537,-1554,-2360,27,-574,-1042,1722,-688,-1570,227,-376,-875,1069,-189,-931,452,-306,-628,523,204,-384,642,-276,-416,189,350,-4,824,-291,-237,-33,345,216,952,-322,-125,-118,216,234
921,-399,-142,38,-44,-5,921,-392,-156,62,-51,-3,931,-396,-172,73,-40,0,934,-399,-188,62,-28,-4,934,-399,-210,34,-3,8,957,-426,-319,-48,-53,-10,1018,-422,-730,-398,-114,-89,1091,-457,-1254,-1151,154,-138,1085,-726,-1582,-2230,1007,-153,874,-1166,-1486,-3381,2087,-287,616,-1524,-1163,-4319,2714,-615,337,-1735,-686,-4381,3338,-799,-27,-1651,-88,-3692,3376,-966,-317,-1456,429,-2679,2612,-972,-437,-1290,669,-1725,1639,-604,-452,-1138,777,-833,587,-89,-515,-1124,830,-222,-376,255,-559,-1430,838,810,-1676,878,-535,-1910,477,2122,-3157,1141,-387,-2309,-317,3338,-4181,681,-30,-2173,-1170,4018,-4424,35,448,-1547,-1736,3546,-3339,-554,628,-1113,-1625,3000,-1616,-658,634,-892,-1304,2264,-896,-797,643,-634,-1002,1632,-572,-855,680,-416,-773,1248,-313,-648,763,-285,-576,832,-179,-356,854,-245,-465,507,-112,-182,923,-237,-370,284,37,-14,960,-252,-295,111,166,38,981,-265,-217,16,292,66
917,-432,-1,-23,16,-9,924,-437,-3,-19,27,-1,921,-432,1,-13,35,3,920,-432,4,-10,23,9,928,-438,8,0,22,11,927,-434,14,10,6,6,931,-441,10,15,0,-1,921,-433,5,18,-9,-13,940,-447,-78,-16,-5,-67,969,-431,-368,-202,242,-118,1024,-409,-878,-1183,594,-572,974,-396,-1266,-2602,1199,-785,822,-550,-1399,-3924,1903,-695,697,-764,-1324,-4605,2131,-556,566,-1070,-1245,-4767,2324,50,129,-1514,-1105,-4446,2665,657,-734,-1898,-556,-3488,2078,1100,-1151,-2187,-87,-2350,600,1477,-1263,-2315,-9,-991,-1526,920,-1328,-2505,-19,79,-3177,-210,-1384,-2764,-485,1860,-4271,-1954,-1378,-2702,-1184,3364,-4840,-3158,-1117,-2049,-1621,3613,-4400,-3498,-759,-1439,-1622,2965,-3175,-3142,-445,-976,-1463,2329,-2040,-2473,-188,-640,-1288,1636,-1194,-1617,53,-446,-1179,1015,-606,-911,275,-395,-966,486,-91,-191,471,-394,-795,275,206,200,627,-393,-652,17,346,478
829,-610,19,-100,34,-9,833,-608,37,-71,11,-25,830,-603,51,-43,-15,-39,823,-599,53,21,-38,-38,818,-597,35,70,-59,-32,814,-589,0,99,-78,-20,811,-577,-41,88,-78,-2,794,-576,-110,71,-72,37,761,-595,-281,141,-165,101,645,-593,-557,185,-210,248,389,-629,-736,88,-73,608,153,-711,-764,-171,458,1172,-118,-836,-701,-793,1716,1497,-528,-1038,-565,-1314,3147,1728,-1024,-1379,-437,-2004,4262,1692,-1351,-1568,-347,-2218,4771,1569,-1593,-1660,-173,-2383,4799,1667,-1433,-1860,241,-2529,3574,1582,-1122,-1954,526,-1434,1596,757,-1100,-1900,332,-479,-152,-69,-1163,-2057,-69,84,-1838,-1331,-1117,-2194,-466,479,-2921,-2947,-980,-2164,-890,920,-3098,-4152,-901,-1813,-1063,1385,-2497,-4805,-865,-1382,-1048,1381,-2054,-4880,-769,-930,-964,1181,-1653,-4380,-662,-594,-892,1313,-1102,-3439,-424,-219,-908,1421,-749,-2172,-127,-84,-936,1210,-402,-1183,184,-58,-940,955,71,-343
840,-525,-254,16,-12,-29,833,-518,-261,26,-10,-22,834,-521,-269,22,-10,-14,839,-522,-278,22,-1,-6,838,-516,-281,9,2,1,838,-515,-288,-8,3,5,824,-501,-339,-43,5,11,773,-462,-475,-130,84,86,664,-383,-665,-285,266,305,459,-316,-814,-607,553,693,244,-350,-976,-1103,746,1070,-4,-560,-1087,-1600,1271,1634,-188,-921,-1073,-1897,1888,2084,-326,-1281,-936,-2104,2419,2223,-444,-1464,-749,-2052,2668,2143,-546,-1632,-528,-1723,3073,2177,-666,-1618,-178,-1230,3216,2111,-770,-1571,246,-998,2512,1651,-787,-1566,485,-656,1129,1034,-823,-1672,416,-107,-516,371,-829,-2141,190,410,-1956,-723,-879,-2493,-114,855,-3266,-2585,-1004,-2424,-678,1853,-3745,-3946,-1036,-2003,-984,2272,-3457,-4606,-922,-1512,-1093,2157,-2751,-4491,-766,-1072,-1118,2156,-1883,-3810,-491,-621,-1091,1857,-1136,-2762,-257,-395,-1029,1497,-554,-1855,-28,-208,-981,1036,-157,-975,194,-183,-927,738,159,-312
838,-525,-254,-14,9,14,836,-525,-257,-10,4,13,825,-511,-274,-16,-8,20,833,-513,-307,-47,-1,33,830,-515,-309,-78,50,62,821,-534,-299,-110,61,97,796,-524,-316,-119,65,106,774,-493,-406,-98,182,246,764,-534,-414,-125,487,400,732,-562,-396,-173,638,447,658,-526,-495,-201,879,518,541,-512,-660,-342,1326,640,375,-573,-723,-549,2018,648,149,-751,-559,-797,2784,608,-53,-914,-232,-858,3100,669,-291,-1173,277,-498,3424,778,-672,-1460,1229,-313,3128,537,-903,-1465,1784,339,1346,317,-1105,-1445,1907,943,-726,354,-1188,-1655,1664,1388,-2707,218,-925,-1885,964,2412,-3850,-165,-586,-1799,330,3129,-3630,-575,-316,-1513,-247,2975,-3360,-906,-101,-1111,-557,2358,-2787,-1114,-3,-746,-587,1862,-1972,-824,211,-543,-672,1013,-1727,-509,446,-341,-650,601,-897,-224,561,-214,-545,288,-242,-79,660,-153,-479,-80,159,93,721,-161,-413,-333,492,222
222,-827,-563,-290,474,335,212,-847,-573,-367,611,356,213,-852,-563,-397,661,384,234,-851,-575,-398,694,372,266,-841,-598,-396,735,363,303,-817,-623,-350,846,390,303,-783,-642,-368,1007,409,292,-731,-651,-409,1105,428,223,-670,-649,-518,1180,509,107,-689,-609,-702,1202,674,-48,-881,-504,-943,1054,847,-237,-1260,-350,-872,677,880,-495,-1729,-208,-318,-31,607,-879,-2589,-643,663,-1177,-733,-1221,-3304,-1706,2225,-2077,-2691,-1004,-3069,-2815,3400,-1372,-4006,-1060,-2275,-3106,3297,270,-4702,-1256,-1346,-2681,2106,1668,-5061,-1281,-663,-2016,1308,2411,-4238,-1110,-212,-1428,800,2363,-2918,-986,88,-1046,602,1853,-1828,-870,327,-727,550,1129,-682,-736,515,-492,637,469,275,-505,629,-423,746,-117,1207,-230,655,-418,622,-425,1990,30,587,-466,357,-563,2490,407,447,-524,134,-230,3188,597,150,-519,-398,225,3510,718,-262,-330,-1168,511,3264,762,-510,-181,-1309,481,2823
432,-773,-653,145,-185,57,469,-642,-731,215,-180,-85,471,-568,-767,200,-96,-60,464,-551,-765,112,-6,-11,442,-576,-732,44,63,34,435,-609,-722,-12,117,51,407,-628,-687,-56,148,56,391,-668,-664,-99,154,72,352,-722,-633,-135,182,99,254,-818,-590,-166,227,209,122,-992,-516,-243,198,389,-84,-1404,-370,-167,17,596,-391,-2003,-372,425,-517,358,-659,-2523,-779,1297,-1264,-775,-979,-3190,-1726,2730,-1827,-2726,-1149,-3495,-2853,3934,-1490,-3936,-1024,-2991,-3477,4456,-33,-4714,-870,-2255,-3394,4174,1403,-4962,-964,-1253,-2996,3218,2187,-4684,-1096,-431,-2484,2133,2413,-3835,-1086,95,-1912,1059,2258,-2561,-952,368,-1468,478,1779,-1574,-770,603,-971,77,1190,-781,-620,720,-576,-56,692,-248,-391,823,-311,-3,306,218,-231,853,-169,41,66,626,-122,847,-172,203,-208,963,12,818,-279,382,-273,1584,180,770,-294,377,-233,1974,373,671,-307,135,-232,2009,538,583,-266,-91,-129,2093
892,-480,-137,2,-6,-38,892,-474,-135,-7,-12,-27,905,-479,-140,-6,-16,-19,917,-472,-147,-18,-23,-49,944,-457,-165,-61,-70,-118,1009,-429,-227,-146,-212,-217,1111,-386,-386,-265,-342,-471,1190,-235,-659,-695,-485,-979,1107,7,-971,-1371,-229,-1160,901,137,-1139,-1888,162,-781,656,130,-1246,-2588,504,-324,416,0,-1211,-3063,803,272,146,-219,-1037,-3353,1181,1006,-37,-428,-843,-3461,1221,1500,-214,-783,-765,-3403,1046,2019,-363,-1123,-684,-3293,605,2039,-459,-1454,-700,-3050,-3,1926,-433,-1936,-604,-2426,-205,2077,-491,-2191,-393,-1837,-678,1150,-530,-2574,-442,-758,-1042,706,-664,-3300,-895,347,-1521,-516,-818,-3715,-2036,2240,-1961,-2692,-692,-3402,-3163,3643,-1199,-3916,-894,-2336,-3670,4124,565,-4703,-1093,-1179,-3379,3623,1926,-4871,-1080,-196,-2552,2361,2587,-3639,-876,155,-1839,1731,2568,-2271,-754,380,-1331,1137,2133,-1412,-723,546,-917,799,1536,-724,-619,704,-565,579,919,-56
1039,-229,-166,-144,-83,194,1008,-241,-185,-177,-73,123,995,-240,-209,-159,-37,88,993,-241,-229,-179,-25,55,990,-247,-229,-143,8,56,980,-251,-215,-123,5,38,987,-258,-220,-102,3,13,994,-254,-226,-90,24,-5,998,-240,-237,-104,35,-48,998,-224,-254,-113,44,-74,1039,-186,-327,-159,58,-116,1109,-109,-535,-311,113,-251,1110,99,-918,-916,352,-432,933,243,-1239,-1747,780,-321,710,98,-1428,-3007,1082,-134,590,-211,-1500,-3835,1392,300,393,-589,-1373,-4392,1680,615,218,-1012,-1203,-4461,1733,830,6,-1321,-1036,-4146,1364,944,-193,-1691,-798,-3416,811,1420,-225,-1776,-559,-2684,106,890,-275,-1851,-374,-1857,-532,636,-305,-2043,-338,-1059,-1038,553,-346,-2410,-540,-59,-1649,-231,-326,-2942,-1086,1247,-2141,-1452,-252,-3194,-1837,3042,-2272,-2851,-178,-2741,-2549,4124,-1831,-3998,-354,-1622,-2852,4235,-615,-4727,-442,-611,-2495,3293,531,-4430,-384,-144,-1810,2264,1237,-3388
