t0_Ax,t0_Ay,t0_Az,t0_gyro_x,t0_gyro_y,t0_gyro_z,t1_Ax,t1_Ay,t1_Az,t1_gyro_x,t1_gyro_y,t1_gyro_z,t2_Ax,t2_Ay,t2_Az,t2_gyro_x,t2_gyro_y,t2_gyro_z,t3_Ax,t3_Ay,t3_Az,t3_gyro_x,t3_gyro_y,t3_gyro_z,t4_Ax,t4_Ay,t4_Az,t4_gyro_x,t4_gyro_y,t4_gyro_z,t5_Ax,t5_Ay,t5_Az,t5_gyro_x,t5_gyro_y,t5_gyro_z,t6_Ax,t6_Ay,t6_Az,t6_gyro_x,t6_gyro_y,t6_gyro_z,t7_Ax,t7_Ay,t7_Az,t7_gyro_x,t7_gyro_y,t7_gyro_z,t8_Ax,t8_Ay,t8_Az,t8_gyro_x,t8_gyro_y,t8_gyro_z,t9_Ax,t9_Ay,t9_Az,t9_gyro_x,t9_gyro_y,t9_gyro_z,t10_Ax,t10_Ay,t10_Az,t10_gyro_x,t10_gyro_y,t10_gyro_z,t11_Ax,t11_Ay,t11_Az,t11_gyro_x,t11_gyro_y,t11_gyro_z,t12_Ax,t12_Ay,t12_Az,t12_gyro_x,t12_gyro_y,t12_gyro_z,t13_Ax,t13_Ay,t13_Az,t13_gyro_x,t13_gyro_y,t13_gyro_z,t14_Ax,t14_Ay,t14_Az,t14_gyro_x,t14_gyro_y,t14_gyro_z,t15_Ax,t15_Ay,t15_Az,t15_gyro_x,t15_gyro_y,t15_gyro_z,t16_Ax,t16_Ay,t16_Az,t16_gyro_x,t16_gyro_y,t16_gyro_z,t17_Ax,t17_Ay,t17_Az,t17_gyro_x,t17_gyro_y,t17_gyro_z,t18_Ax,t18_Ay,t18_Az,t18_gyro_x,t18_gyro_y,t18_gyro_z,t19_Ax,t19_Ay,t19_Az,t19_gyro_x,t19_gyro_y,t19_gyro_z,t20_Ax,t20_Ay,t20_Az,t20_gyro_x,t20_gyro_y,t20_gyro_z,t21_Ax,t21_Ay,t21_Az,t21_gyro_x,t21_gyro_y,t21_gyro_z,t22_Ax,t22_Ay,t22_Az,t22_gyro_x,t22_gyro_y,t22_gyro_z,t23_Ax,t23_Ay,t23_Az,t23_gyro_x,t23_gyro_y,t23_gyro_z,t24_Ax,t24_Ay,t24_Az,t24_gyro_x,t24_gyro_y,t24_gyro_z,t25_Ax,t25_Ay,t25_Az,t25_gyro_x,t25_gyro_y,t25_gyro_z,t26_Ax,t26_Ay,t26_Az,t26_gyro_x,t26_gyro_y,t26_gyro_z,t27_Ax,t27_Ay,t27_Az,t27_gyro_x,t27_gyro_y,t27_gyro_z,t28_Ax,t28_Ay,t28_Az,t28_gyro_x,t28_gyro_y,t28_gyro_z,t29_Ax,t29_Ay,t29_Az,t29_gyro_x,t29_gyro_y,t29_gyro_z
717,-218,221,152,-338,-231,734,-245,145,135,-439,59,798,-309,51,66,-522,231,877,-366,-47,90,-462,347,926,-398,-92,-2,-398,372,981,-436,-145,-53,-310,354,1016,-476,-175,-159,-179,296,1056,-527,-216,-242,-164,236,1137,-609,-269,-380,-258,173,1272,-752,-345,-509,-418,30,1430,-841,-390,-710,-686,-259,1756,-888,-443,-992,-978,-727,1963,-951,-491,-1638,-1569,-1665,1751,-1073,-314,-2708,-1825,-3092,1119,-1339,-164,-3414,-1315,-4138,-157,-1540,-149,-3944,-222,-4692,-1850,-1226,292,-4166,1491,-4041,-2893,-679,879,-3262,1260,-1816,-2917,-774,954,-1483,937,1369,-2857,-1497,1198,452,-178,3117,-2764,-2566,1149,2212,-2446,4242,-2549,-2860,1168,2771,-3754,4833,-2612,-3168,1048,3288,-4599,4544,-2356,-3075,546,3153,-4986,3292,-2049,-2739,107,1741,-4295,1437,-1836,-2455,-152,518,-3016,30,-1714,-2192,-162,-598,-1334,-1065,-1509,-1876,-126,-1155,-212,-1600,-1155,-1623,-104,-1496,836,-1768,-753,-1376,-125,-1559,1214,-1760,-419,-1203,-148,-1510,1501,-1656
876,-436,47,-73,-139,19,820,-479,0,-124,-188,125,804,-549,-60,-231,-290,301,771,-599,-116,-309,-353,485,796,-658,-138,-420,-360,671,865,-742,-144,-433,-384,795,982,-864,-199,-473,-633,819,1137,-1005,-285,-413,-773,578,1281,-1116,-384,-574,-986,126,1306,-1172,-539,-1026,-1199,-528,1288,-1236,-497,-1859,-1551,-1145,1163,-1199,-286,-3049,-2122,-1919,903,-1171,-78,-4023,-2164,-2850,120,-1266,-15,-4650,-1229,-4021,-1074,-1127,-14,-4965,-179,-4608,-2423,-679,400,-4947,318,-3381,-2843,-456,527,-3602,248,-617,-2704,-639,627,-2377,-91,1811,-2451,-1672,825,-480,-717,3499,-2409,-2742,815,997,-2530,4392,-2226,-3190,465,2108,-3903,4811,-2089,-3068,307,3037,-4630,3877,-1919,-2698,-13,2987,-4904,2484,-1874,-2404,-186,1912,-4463,1283,-1725,-2226,-520,1014,-3233,-174,-1594,-1971,-680,285,-1573,-1283,-1287,-1735,-624,-727,-151,-1721,-902,-1557,-436,-1326,833,-1763,-524,-1401,-338,-1611,1194,-1689,-189,-1176,-379,-1491,1453,-1493
1011,-191,-350,-291,13,-21,996,-177,-319,-331,-29,-40,965,-128,-303,-405,-108,-70,928,-99,-274,-544,-119,-15,923,-123,-287,-561,-20,36,936,-96,-284,-546,31,40,960,-113,-306,-345,8,115,952,-107,-324,-181,-4,170,941,-107,-357,5,-44,280,1012,-162,-505,166,-117,490,1358,-354,-916,16,-453,417,1875,-604,-1428,-794,-686,-183,1987,-853,-1403,-1954,-418,-1058,1704,-1132,-971,-3117,141,-2184,1115,-1266,-677,-3649,834,-3124,195,-1232,-515,-3881,1459,-3494,-747,-1234,86,-3613,2249,-2946,-1415,-1046,922,-2267,1701,-1525,-1749,-1085,1194,-1,-443,95,-1802,-1654,878,2211,-2525,1129,-1526,-2623,114,3732,-3645,1516,-1517,-3121,-680,4538,-4424,1261,-1612,-3247,-1475,5041,-4654,306,-1570,-2867,-1902,4398,-3244,-340,-1467,-2390,-1890,2947,-1859,-685,-1244,-1892,-1635,1622,-616,-670,-943,-1469,-1159,223,177,-482,-667,-1233,-831,-582,485,-351,-434,-1061,-655,-930,682,-270,-295,-894,-611,-957,921,-304
465,-898,-172,-32,-80,-5,455,-892,-169,-57,-86,-2,452,-883,-183,-84,-146,5,454,-888,-186,-74,-89,-13,452,-898,-181,13,-65,-14,470,-901,-189,53,-35,-51,487,-908,-188,76,-5,-113,521,-910,-198,138,27,-170,525,-862,-195,150,71,-211,578,-883,-221,142,36,-181,734,-1043,-345,107,-34,-117,1087,-1568,-615,-467,-250,-422,1370,-1945,-906,-1341,-451,-1371,1209,-1891,-940,-2307,67,-2405,894,-1902,-765,-3086,966,-3101,258,-1672,-573,-3238,2144,-3709,-288,-1273,-548,-3477,2916,-3798,-921,-929,-226,-3369,3596,-2885,-1600,-760,461,-2571,3683,-1377,-1993,-642,1058,-1102,1772,193,-2077,-771,1041,430,-744,1665,-2446,-1622,389,2561,-2887,3290,-2667,-2254,-562,3415,-4022,3702,-2589,-2344,-1195,2923,-4751,2917,-2298,-2143,-1639,2934,-4727,1863,-2005,-1947,-1960,2413,-3817,1072,-1671,-1708,-2126,1621,-2228,364,-1352,-1434,-1925,898,-644,-69,-1106,-1139,-1409,392,936,-533,-918,-874,-925,154,1566,-754
496,-323,757,-72,4,-10,494,-332,751,-101,26,12,487,-348,760,-108,10,55,503,-373,753,-102,-22,97,508,-394,739,-104,-16,115,504,-403,730,-109,1,122,495,-423,721,-148,9,172,554,-579,788,-190,-22,353,769,-945,904,-358,-273,431,1089,-1423,987,-1137,-1089,26,1206,-1681,937,-2274,-1801,-946,1081,-1709,936,-3091,-1951,-2157,811,-1537,865,-3229,-1779,-3173,346,-1189,614,-3392,-1447,-4045,-205,-851,504,-3551,-432,-4567,-942,-420,767,-3210,869,-4688,-1439,229,1112,-2011,702,-2968,-1498,331,1029,-507,148,-412,-1498,133,1062,747,-731,1603,-1720,-653,1044,2517,-2283,3368,-1863,-1611,800,3652,-3680,4191,-2087,-2182,354,3313,-4496,3494,-1822,-2532,-318,3852,-4044,1769,-1787,-2382,-673,3096,-3186,738,-1627,-2195,-933,2066,-2051,-86,-1510,-1881,-963,1132,-901,-526,-1218,-1594,-767,168,125,-726,-981,-1389,-519,-339,793,-854,-684,-1202,-388,-584,1031,-900,-475,-1081,-331,-603,1216,-997
795,-512,389,83,157,-60,784,-493,414,32,180,-91,763,-460,448,-71,128,-75,763,-444,477,-112,49,-32,758,-440,479,-17,70,-14,755,-450,464,46,69,13,761,-485,442,82,92,26,776,-560,414,62,93,22,818,-711,348,113,286,-36,874,-928,323,-28,436,-161,979,-1199,374,-413,676,-572,1050,-1408,597,-886,813,-1209,875,-1490,956,-1421,937,-2300,541,-1349,1253,-1454,711,-3375,301,-1057,1246,-1330,109,-4303,-41,-811,1103,-1072,8,-4880,-614,-384,965,-1017,-71,-5236,-1179,-22,976,-750,-69,-4462,-1400,216,920,2,303,-2220,-1391,165,968,384,205,-3,-1404,-113,1167,986,-850,1883,-1438,-900,1087,2342,-2539,3482,-1469,-1710,751,3315,-3809,4230,-1393,-2199,21,3440,-4617,3668,-1174,-2262,-502,3070,-4319,2560,-1161,-2226,-829,2699,-3470,1058,-992,-2048,-989,2303,-2429,44,-864,-1795,-906,1399,-1288,-658,-646,-1592,-781,764,-497,-951,-418,-1410,-605,303,185,-1088
822,-476,-103,-479,57,-556,791,-395,-74,-391,61,-448,811,-360,-83,-272,-15,-263,869,-362,-129,-194,-41,-194,900,-360,-144,-103,-8,-136,919,-356,-169,-77,-29,-139,912,-347,-180,-65,-48,-109,896,-334,-204,-8,-39,-92,881,-326,-209,1,-32,-27,879,-323,-216,27,-13,30,876,-316,-204,68,33,93,880,-307,-188,128,67,173,882,-299,-154,203,121,306,881,-289,-121,355,161,609,946,-394,-85,450,138,924,1030,-539,-22,490,98,1097,1126,-776,56,413,-320,1110,1193,-992,124,326,-741,843,1164,-1264,222,221,-1515,502,963,-1355,214,176,-2114,-171,697,-1338,73,67,-2612,-748,406,-1307,-48,-206,-2996,-1387,159,-1249,-261,15,-2645,-2121,-68,-1086,-418,164,-1585,-2455,-235,-944,-550,170,-617,-2735,-378,-839,-795,115,314,-2923,-466,-830,-973,-745,1054,-3063,-701,-738,-896,-1677,1986,-2979,-855,-677,-499,-2581,2636,-2283,-798,-732,46,-3231,2968,-1503
715,-371,599,-84,-47,-40,721,-372,596,-94,-47,-47,726,-370,592,-95,-58,-50,724,-360,576,-142,-129,-52,742,-368,565,-186,-174,-41,779,-387,559,-227,-230,-6,827,-423,530,-244,-297,25,868,-454,486,-283,-350,-31,847,-442,456,-308,-361,-89,787,-392,420,-281,-327,-85,751,-367,391,-262,-318,66,779,-401,369,-183,-266,249,832,-462,316,-326,-298,495,1030,-809,224,-341,-391,682,1319,-1172,111,-655,-501,476,1608,-1535,75,-1412,-797,-409,1562,-1744,172,-2403,-1005,-1908,1186,-1706,203,-2934,-737,-3353,522,-1415,8,-3386,-194,-4383,-167,-1142,-91,-3684,730,-4716,-1018,-779,329,-3466,1783,-4007,-1667,-412,1042,-2228,1949,-2034,-1859,-297,1252,-291,636,396,-1982,-757,1053,1715,-1555,2499,-2316,-1685,710,3330,-3049,3794,-2450,-2462,158,3764,-4198,4451,-2432,-2786,-266,3725,-4807,3860,-2355,-2820,-798,3608,-4551,2497,-2003,-2591,-1150,2781,-3285,1235,-1711,-2118,-1032,1446,-1495,-80
620,736,136,269,-263,284,682,712,51,224,-307,226,717,700,3,170,-236,126,725,706,-20,146,-175,58,720,711,-37,124,-138,15,710,725,-43,113,-146,7,712,730,-59,117,-105,18,714,734,-63,88,-88,11,714,734,-62,66,-55,-10,720,725,-64,57,-31,-28,735,702,-96,42,18,-73,725,701,-92,6,146,-202,675,735,-47,-20,160,-282,632,778,-24,19,151,-224,628,797,-29,44,77,-140,657,802,-60,39,61,-98,689,797,-95,-5,197,-144,636,755,-134,-193,504,-318,248,681,36,-511,1255,-689,-764,782,1126,-436,1327,-260,-1729,-168,1697,1748,-1016,2156,-2391,-1841,1040,3346,-2888,3588,-2218,-2636,120,3318,-3848,4066,-1894,-2945,-778,2792,-4259,3542,-1485,-2705,-1233,1775,-3343,2062,-1228,-2302,-1215,1145,-2151,906,-965,-1770,-1028,613,-759,50,-753,-1392,-704,20,-30,-194,-520,-1203,-545,-172,245,-291,-368,-1050,-456,-112,554,-419
831,-559,117,-61,37,-97,829,-545,114,-46,16,-70,840,-550,109,-31,13,-44,843,-549,109,-8,11,-30,858,-550,93,-18,10,-33,869,-549,86,-52,18,-56,866,-536,72,-91,0,-60,865,-538,35,-177,-19,-45,858,-570,-15,-272,-1,7,890,-662,-71,-286,3,101,937,-820,-98,-317,-66,111,1022,-948,-83,-443,-242,-38,1107,-954,-82,-707,-535,-362,1168,-896,-51,-1028,-717,-826,1148,-715,-19,-1255,-913,-1352,1113,-537,-39,-1520,-1142,-1785,989,-318,-76,-1695,-1296,-2251,795,-93,-163,-1934,-1392,-2740,453,185,-211,-2153,-1151,-3180,9,439,-242,-2014,-364,-3310,-474,747,-229,-1936,637,-2953,-929,903,-62,-1798,1393,-2004,-1238,922,79,-1643,1371,-891,-1429,710,341,-1255,1324,767,-1421,287,562,-503,606,2538,-1360,-507,573,634,-701,3912,-1264,-1180,343,1469,-2152,4573,-1031,-1532,-152,1608,-3220,4239,-877,-1747,-466,1757,-3444,3501,-792,-1832,-805,2130,-3287,2580
492,826,-18,-99,-264,-291,535,847,-77,-76,-219,-265,559,854,-98,-96,-109,-296,534,861,-89,-141,-19,-397,484,870,-71,-207,46,-478,468,900,-86,-240,131,-587,446,917,-101,-445,291,-758,321,939,-22,-622,634,-955,97,960,97,-891,911,-1162,-202,946,233,-1166,1276,-1238,-762,849,506,-1451,1470,-1076,-1372,707,861,-1362,973,-244,-1818,192,1241,-84,1,1972,-2034,-850,1104,1879,-1543,3478,-2080,-2109,717,3334,-3141,4447,-1768,-2432,339,3038,-4041,4572,-1612,-2720,44,2769,-4616,3617,-1335,-2601,-424,2739,-4222,2343,-1177,-2455,-685,1889,-3474,845,-959,-2248,-887,1427,-2046,-149,-771,-2001,-840,672,-612,-998,-519,-1690,-710,146,356,-1424,-303,-1452,-563,-259,954,-1534,-79,-1247,-425,-543,1153,-1422,129,-1090,-361,-644,1242,-1362,278,-908,-257,-535,1443,-1243,409,-762,-194,-295,1322,-1054,557,-650,-157,-188,1110,-829,648,-597,-110,-120,926,-625,740,-574,-67,-58,713,-485
1004,-174,116,-114,-40,-146,976,-142,113,-131,-46,-156,948,-118,106,-123,-63,-99,963,-131,115,-111,-25,-43,1030,-164,108,-81,-44,-12,1139,-190,46,-115,-131,-80,1345,-249,-79,-260,-324,-289,1603,-302,-189,-578,-459,-719,1699,-319,-238,-1005,-483,-1331,1455,-271,-199,-1827,-425,-2174,906,-178,-14,-2284,186,-2798,147,-15,347,-2544,736,-2885,-481,90,917,-2322,668,-2114,-976,-149,1411,-491,-936,-279,-1259,-828,1051,1912,-2795,1479,-1197,-1573,215,3438,-3991,2488,-1095,-1846,-433,3788,-4188,2385,-850,-1982,-1064,3198,-3923,1979,-653,-1876,-1464,2568,-2940,1194,-524,-1667,-1551,1815,-1505,349,-393,-1427,-1394,1081,-396,-148,-220,-1223,-1160,508,294,-421,-87,-1038,-889,59,630,-567,51,-917,-749,-56,675,-567,178,-821,-638,-74,784,-624,280,-762,-581,57,823,-613,380,-715,-537,174,992,-641,449,-680,-465,210,1023,-570,565,-677,-417,160,1051,-581,623,-663,-345,175,1084,-564
1011,-265,86,-85,59,-44,1004,-263,95,-164,4,-81,995,-252,102,-177,-50,-77,964,-235,97,-217,-64,-81,963,-234,84,-218,-136,-14,973,-237,50,-197,-105,12,1008,-260,16,-209,-116,-2,1047,-271,7,-90,-104,-20,1130,-276,-65,-80,-175,-104,1310,-296,-207,-224,-296,-354,1559,-351,-344,-472,-322,-759,1746,-417,-514,-1140,-501,-1602,1592,-499,-507,-1888,-312,-2479,1019,-508,-297,-2401,419,-2917,266,-455,145,-2602,1100,-2819,-560,-273,864,-2247,1080,-2178,-1071,-311,1348,-871,-23,-678,-1391,-825,1243,1653,-1568,1485,-1427,-1662,694,3293,-2679,3164,-1005,-2390,66,4049,-3439,3649,-600,-2748,-547,3960,-3559,3116,-336,-2628,-1075,3351,-2808,2099,-277,-2433,-1293,2249,-1961,1226,-156,-2143,-1327,1363,-1058,494,-135,-1756,-1139,652,-98,-111,-46,-1482,-957,-61,419,-443,25,-1271,-701,-548,821,-675,132,-1080,-538,-666,938,-723,238,-917,-402,-708,955,-708,348,-811,-327,-567,861,-621,458,-723,-315,-409,848,-550
995,-245,-81,-4,124,-165,1021,-266,-82,61,4,-293,1035,-247,-115,4,-52,-372,1041,-215,-105,-33,-95,-369,1025,-177,-104,-83,-130,-349,1020,-135,-95,-117,-152,-295,999,-100,-94,-102,-113,-254,998,-82,-94,-68,-150,-190,998,-67,-120,2,-123,-77,1015,-81,-140,36,-201,-2,1107,-114,-221,2,-353,-21,1290,-147,-318,-83,-554,-204,1486,-164,-454,-276,-840,-614,1643,-157,-591,-558,-1086,-1323,1678,-197,-558,-1150,-1270,-2312,1367,-273,-306,-1541,-1107,-3274,693,-405,-115,-2145,-1102,-4315,-188,-401,-67,-2674,-516,-4538,-1232,-202,240,-3042,350,-3455,-1805,-110,563,-2358,137,-1434,-1960,-213,679,-936,-417,1204,-1850,-587,674,750,-1215,3018,-1553,-1363,499,2520,-2096,4186,-1369,-1713,279,2868,-3285,4719,-1204,-1874,123,2753,-4116,4345,-1215,-1996,-126,2909,-4393,3374,-1291,-1969,-508,2786,-4081,2216,-1324,-1956,-806,2096,-3326,1203,-1257,-1855,-894,1349,-2295,261,-1092,-1637,-820,607,-1081,-535
1128,-190,-210,51,-488,-207,1097,-145,-253,42,-587,-328,1025,-103,-292,36,-638,-400,1000,-81,-338,-11,-645,-485,1013,-71,-382,0,-608,-571,1069,-47,-497,-120,-869,-824,1060,42,-683,-294,-1131,-1094,1009,124,-795,-569,-1200,-1315,986,183,-813,-918,-1465,-1635,976,224,-769,-1365,-1679,-2123,760,171,-595,-1822,-1452,-2773,268,59,-416,-2195,-1146,-3427,-583,-78,-377,-2695,-545,-3592,-1527,-205,-327,-3309,-201,-2874,-2375,-557,-115,-3446,-144,-650,-2584,-1220,-102,-2882,-386,1840,-2707,-2325,-20,-1975,-1436,3515,-2762,-3381,279,-346,-1999,4402,-2949,-3819,331,255,-3586,4973,-2526,-4107,464,778,-4493,4983,-1911,-4588,7,1349,-4935,3862,-1654,-4195,88,718,-4406,1243,-1683,-3739,54,602,-4881,-817,-1430,-2969,-302,487,-3964,-1992,-1187,-2325,-303,1,-2773,-1886,-878,-1621,-420,-41,-1704,-1887,-571,-1145,-410,-158,-610,-1490,-161,-896,-287,-428,38,-908,149,-859,-173,-668,384,-541,429,-826,-105,-712,720,-368
961,-173,64,-130,27,-59,965,-163,46,-58,32,-48,973,-168,47,-14,33,-22,977,-168,20,-16,17,13,991,-164,-6,-67,104,131,1013,-219,-17,-338,84,204,1131,-306,-24,-214,14,244,1341,-425,-89,-324,-222,52,1702,-565,-278,-430,-576,-370,2027,-691,-429,-843,-966,-1202,2098,-869,-338,-1556,-1140,-2562,1719,-998,-73,-2078,-953,-3778,815,-1057,-57,-2627,-332,-4624,-285,-907,-114,-3126,769,-4847,-1538,-554,332,-3447,1321,-3833,-2209,-483,612,-2389,241,-1475,-2482,-890,587,-689,-1434,1189,-2843,-1886,359,1408,-3141,3009,-3414,-3176,-70,3140,-4250,3971,-3459,-3305,-415,3987,-4881,3825,-3319,-3263,-632,4064,-5216,3340,-2958,-3043,-989,3146,-5423,2287,-2325,-2640,-1166,2769,-4096,1028,-2028,-2278,-923,2177,-1616,-286,-1828,-1932,-676,1524,-340,-650,-1534,-1641,-597,859,201,-687,-1254,-1426,-625,502,653,-736,-995,-1317,-528,9,1157,-856,-727,-1262,-446,-337,1472,-1152,-531,-1220,-341,-256,1923,-1440
770,-745,-108,-176,-87,-159,735,-695,-111,-185,-102,-179,722,-675,-98,-205,-74,-162,715,-659,-89,-175,-49,-144,763,-693,-99,-156,-48,-120,827,-735,-137,-108,-42,-174,944,-810,-231,-146,-127,-324,1125,-884,-340,-250,-137,-625,1254,-903,-399,-368,-182,-973,1437,-910,-368,-599,-330,-1527,1471,-856,-285,-751,-553,-2246,1314,-728,-103,-1118,-1189,-3303,1071,-656,-33,-1479,-1670,-4209,510,-659,-88,-1920,-1382,-4852,-220,-626,-224,-2231,-346,-4811,-1168,-403,-327,-2734,717,-4200,-2055,-108,-168,-3179,1007,-2972,-2528,-129,-85,-2803,219,-579,-2382,-513,-225,-2264,-716,1736,-1969,-1239,-404,-1547,-1493,3456,-1622,-1987,-471,-796,-2428,4435,-1229,-2183,-421,-226,-2257,4712,-924,-2276,-358,226,-2765,4673,-708,-2340,-272,1128,-2356,4979,-556,-2829,-121,1637,-2851,4925,-533,-3206,5,1178,-3459,3754,-388,-3323,-428,1115,-3984,2075,-509,-2843,-651,765,-3593,432,-598,-2181,-672,166,-3333,-628,-478,-1683,-617,-62,-2626,-851,-241,-1292,-484,-219,-1587,-764
927,-390,227,-106,65,-216,947,-377,213,-125,2,-230,966,-369,187,-155,-33,-239,1001,-374,148,-273,-66,-344,998,-341,146,-392,3,-464,1022,-319,180,-436,-83,-462,1096,-307,184,-426,-260,-464,1248,-323,140,-347,-466,-495,1417,-318,46,-375,-858,-738,1625,-316,-84,-607,-1306,-1234,1711,-305,-194,-1155,-1794,-2087,1586,-361,-158,-1799,-1631,-2983,989,-476,-81,-2406,-772,-3892,171,-510,-105,-3032,255,-4507,-928,-415,-6,-3637,1015,-4191,-1738,-362,418,-3347,861,-2384,-2087,-596,537,-2042,-378,34,-2144,-1101,494,-244,-1839,2201,-2396,-2290,169,2096,-3497,3721,-1989,-3198,-185,3370,-4383,4414,-1442,-3471,-163,3679,-4394,3689,-885,-3657,-788,4179,-4388,2503,-658,-3327,-996,3714,-3001,1033,-550,-3044,-1015,2688,-2509,22,-523,-2675,-1002,2037,-2148,-839,-444,-2068,-1013,1447,-1558,-1053,-293,-1664,-891,619,-1206,-1067,-56,-1355,-712,34,-534,-934,126,-1161,-502,-235,69,-849,306,-1011,-275,-397,485,-818
990,-265,-62,-102,-333,-40,986,-264,-85,-99,-311,-60,993,-271,-106,-70,-282,-72,1030,-297,-151,-65,-305,-107,1119,-353,-223,-83,-401,-169,1173,-351,-302,-151,-610,-315,1203,-327,-408,-351,-802,-516,1273,-289,-539,-711,-1048,-865,1324,-242,-602,-1158,-1246,-1332,1262,-181,-544,-1717,-1418,-2022,1019,-109,-387,-2040,-1161,-2636,529,-109,-303,-2486,-789,-3415,-132,-58,-277,-2920,-151,-3908,-1120,22,-212,-3548,709,-3763,-2157,48,288,-3715,582,-2307,-2665,-423,485,-2460,-625,688,-2744,-1316,515,-553,-1887,2709,-2913,-2952,252,1820,-3521,4010,-2447,-3238,-111,2022,-4401,4442,-1867,-3077,-225,2419,-4700,3554,-1354,-2988,-628,3048,-4199,2306,-983,-2894,-820,2748,-3265,942,-769,-2726,-785,2255,-2286,-169,-656,-2505,-777,1784,-1642,-885,-535,-2157,-756,1221,-1210,-1334,-387,-1808,-732,698,-981,-1588,-224,-1470,-670,282,-613,-1525,-72,-1216,-583,-57,-261,-1292,97,-1028,-451,-362,86,-982,250,-925,-332,-453,317,-731
1011,-337,78,-75,-130,-3,1026,-342,56,-92,-169,-54,999,-317,38,-82,-191,-76,972,-299,22,-110,-215,-91,950,-279,17,-103,-182,-71,938,-267,16,-91,-133,-49,955,-278,10,-77,-117,-15,978,-289,-14,-55,-91,-18,1018,-325,-53,-58,-143,-20,1102,-372,-117,-125,-142,-116,1159,-381,-138,-174,-180,-186,1285,-395,-209,-431,-584,-433,1357,-359,-290,-724,-897,-782,1349,-274,-328,-1016,-1044,-1226,1298,-192,-339,-1370,-1335,-1717,1150,-75,-331,-1707,-1358,-2272,884,38,-283,-1889,-1055,-2661,444,163,-204,-2220,-690,-3036,-3,255,-108,-2541,-205,-3115,-498,318,42,-2761,423,-2723,-1013,313,365,-2795,711,-1893,-1389,212,625,-2165,369,-664,-1660,-105,788,-1192,-340,1154,-1922,-811,953,518,-1381,2980,-2317,-2290,709,2740,-3032,4164,-2178,-3269,255,3608,-4108,4752,-1520,-3486,-88,3294,-4407,3956,-1085,-3411,-492,3143,-4135,2452,-801,-3118,-876,2703,-3116,865,-674,-2747,-1001,2193,-1939,-339
923,-403,142,-18,20,-9,926,-403,138,0,11,-12,919,-395,121,6,0,-11,919,-407,104,-3,-13,9,910,-424,79,-35,-45,43,931,-470,31,-87,-108,107,979,-547,-32,-199,-243,168,1092,-648,-134,-364,-439,168,1350,-813,-233,-767,-669,-83,1577,-842,-238,-1169,-678,-673,1708,-792,-159,-1458,-977,-1401,1723,-743,-160,-1840,-1541,-2362,1471,-717,-160,-2296,-1558,-3345,963,-757,-182,-2555,-879,-3960,79,-743,-333,-3084,-25,-4438,-1098,-628,-248,-3502,1429,-4009,-2105,-358,427,-3390,1408,-2643,-2314,-476,572,-1670,-60,294,-2196,-965,471,41,-1353,2474,-2160,-1867,250,1872,-3047,3876,-2030,-2541,-43,2890,-4117,4506,-1735,-2874,-343,3475,-4806,3774,-1419,-2773,-756,3615,-4867,2700,-1141,-2613,-1078,3022,-3775,1308,-936,-2437,-1180,2409,-2084,82,-848,-2180,-1001,1734,-549,-922,-682,-1858,-862,1178,132,-1182,-456,-1573,-716,468,482,-1158,-280,-1358,-600,-11,559,-1026,-129,-1213,-545,-288,601,-935
970,-453,53,-121,37,-163,946,-418,68,-137,8,-180,921,-394,88,-147,-30,-174,907,-372,93,-128,-83,-146,911,-364,78,-94,-99,-122,929,-364,55,-69,-96,-102,964,-375,26,-58,-89,-114,987,-371,0,-58,-69,-147,1026,-382,-21,-87,-92,-184,1077,-383,-49,-127,-182,-251,1162,-398,-97,-213,-353,-332,1280,-413,-196,-451,-632,-510,1404,-422,-329,-769,-918,-837,1449,-376,-418,-1146,-911,-1342,1385,-352,-392,-1551,-841,-1935,1181,-287,-259,-2054,-827,-2573,837,-261,-205,-2563,-447,-3169,268,-184,-106,-2850,417,-3612,-451,-29,112,-3047,1267,-3743,-1147,178,522,-2937,1364,-3016,-1710,191,727,-2137,813,-1234,-1973,-16,817,-1333,-142,409,-2069,-728,819,472,-1791,2584,-2321,-1877,494,2500,-3357,3845,-2351,-2700,101,3678,-4374,4521,-2156,-2755,-181,3652,-4895,4086,-1803,-2684,-603,3676,-4891,2964,-1491,-2496,-767,3226,-3977,1865,-1301,-2427,-942,2420,-3118,876,-1079,-2185,-918,1666,-1643,35
912,-356,196,-136,106,-104,920,-349,185,-107,38,-102,924,-348,188,-80,31,-91,931,-357,181,-49,27,-73,932,-364,181,-52,49,-79,922,-368,181,-12,70,-65,927,-374,178,-30,52,-77,928,-380,171,-32,40,-65,936,-383,157,-59,-2,-43,947,-386,163,-75,0,-26,947,-364,177,-71,-38,-21,969,-376,197,-87,-41,-16,997,-389,209,-29,-86,-7,1087,-426,165,-50,-240,-43,1305,-521,65,-44,-412,-116,1693,-667,-100,-347,-728,-633,1965,-799,-227,-986,-1064,-1626,1844,-917,-109,-1685,-1031,-2722,1323,-954,33,-2336,-780,-3789,575,-823,-12,-2849,-217,-4391,-396,-601,27,-3267,847,-4210,-1292,-419,523,-3181,1487,-2954,-1870,-480,924,-1917,429,-539,-2153,-979,1031,-74,-1019,1867,-2429,-2235,808,2329,-2915,3531,-2141,-3076,346,3599,-4025,4394,-1440,-3416,78,3778,-3963,4012,-833,-3552,-470,3849,-3386,2844,-382,-3309,-930,3018,-2296,1440,-200,-2828,-1063,2182,-1132,244
795,-714,48,-91,45,-46,805,-712,38,-115,25,-79,808,-695,24,-160,4,-121,793,-660,24,-204,21,-150,792,-651,37,-245,12,-147,838,-686,16,-255,-12,-172,935,-768,-59,-289,-74,-209,1130,-914,-171,-493,-152,-459,1303,-990,-296,-709,-167,-855,1449,-1038,-311,-1144,-252,-1470,1531,-1059,-201,-1830,-571,-2321,1333,-1006,35,-2454,-647,-3420,866,-842,134,-2642,-393,-4250,96,-633,69,-3190,41,-4860,-761,-518,183,-3680,1042,-4520,-1623,-368,857,-3137,1038,-2600,-1871,-598,962,-1280,-303,77,-1896,-1171,886,904,-1682,2301,-1902,-2226,520,2988,-3019,3778,-1384,-2781,78,3696,-4016,4132,-1089,-2972,-158,3956,-4083,3421,-804,-3025,-817,4142,-3972,2312,-557,-2909,-1280,3520,-2599,1065,-441,-2675,-1375,2708,-1366,80,-332,-2240,-1247,1913,-395,-619,-183,-1846,-1048,1144,36,-977,-45,-1495,-821,384,339,-1169,75,-1258,-626,-63,481,-1058,224,-1070,-466,-297,574,-942,357,-929,-348,-369,674,-836
948,-582,111,-225,-182,-64,1021,-626,124,-239,-328,-119,1050,-614,59,-218,-620,-282,1063,-589,-57,-249,-818,-476,1075,-539,-207,-276,-840,-675,1141,-523,-307,-447,-930,-865,1267,-506,-420,-866,-1291,-1321,1349,-446,-514,-1396,-1695,-2031,1248,-348,-527,-1973,-1869,-2852,888,-290,-454,-2589,-1610,-3659,286,-322,-421,-3204,-995,-4123,-739,-394,-356,-4153,-59,-3970,-1899,-394,173,-4669,772,-2552,-2520,-763,682,-3333,-189,556,-2727,-1612,790,-1256,-1688,2630,-3002,-3080,494,1571,-3423,3965,-2801,-3696,118,2612,-4343,4500,-2182,-3795,-284,3366,-4673,3232,-1722,-3619,-827,3748,-4187,1980,-1251,-3426,-1270,3264,-3028,577,-881,-2993,-1372,2627,-1531,-643,-723,-2445,-1178,1769,-688,-1164,-438,-1952,-963,874,-287,-1335,-244,-1611,-727,313,104,-1383,-79,-1327,-509,-57,307,-1234,73,-1144,-363,-221,375,-1040,219,-1002,-250,-209,420,-789,366,-908,-201,-249,424,-654,463,-832,-147,-200,542,-519,561,-782,-118,-225,548,-474
924,-376,39,-38,0,-68,925,-375,15,-45,-27,-11,930,-378,5,-91,-19,19,928,-387,13,-125,7,67,935,-403,25,-147,32,74,922,-416,30,-141,37,97,954,-442,0,-155,-43,95,999,-468,-40,-190,-96,70,1108,-538,-87,-190,-234,14,1259,-616,-142,-265,-376,-147,1490,-690,-262,-423,-689,-545,1840,-822,-297,-751,-746,-1542,1848,-722,-148,-936,-1118,-2776,1522,-755,101,-1311,-1431,-3878,762,-782,130,-1594,-1540,-4681,-125,-705,-118,-2235,-835,-4973,-1393,-452,-84,-2907,434,-4056,-2117,-260,310,-2642,344,-1695,-2370,-627,538,-1181,-548,1400,-2527,-1651,458,916,-2110,3265,-2614,-2642,363,2305,-3484,4252,-2635,-3074,242,3052,-4445,4887,-2684,-3171,-89,3146,-4955,4778,-2532,-3074,-482,2362,-4928,3740,-2305,-2806,-748,2031,-3964,2201,-1985,-2261,-766,1665,-2102,677,-1743,-1880,-628,1156,-765,-259,-1314,-1578,-516,588,307,-1027,-977,-1407,-400,172,1038,-1772,-691,-1318,-346,-120,1520,-2530
941,-252,258,-15,12,-55,943,-256,257,0,2,-40,936,-257,252,11,-25,-13,946,-267,233,15,-50,11,953,-271,220,0,-45,12,958,-270,202,-26,-60,16,957,-273,201,-52,-32,24,946,-283,193,-73,-99,49,942,-307,167,-69,-230,97,1010,-348,95,-53,-458,200,1156,-409,10,-80,-699,261,1475,-558,-135,-324,-1144,101,1774,-655,-322,-741,-1550,-444,1990,-733,-550,-1807,-2172,-1491,1904,-856,-539,-2859,-2048,-2597,1273,-981,-373,-3635,-1113,-3569,281,-981,-345,-4291,-160,-4003,-999,-752,78,-4469,1062,-3082,-1790,-657,730,-3449,951,-851,-2185,-996,1016,-1381,-568,1716,-2503,-2174,1021,1287,-2240,3445,-2566,-3357,704,3056,-3558,4360,-1811,-3965,13,3458,-4352,4189,-1144,-4009,-604,3734,-3720,3012,-670,-3654,-1020,2948,-2814,1488,-438,-3140,-1144,2382,-1743,241,-325,-2428,-1092,1623,-758,-554,-187,-1895,-919,767,-243,-920,-46,-1521,-661,56,108,-1021,95,-1305,-438,-277,330,-998
847,-495,287,-43,-9,-13,857,-503,271,-84,-17,-26,858,-501,255,-121,-18,-44,855,-497,252,-173,5,-57,849,-495,274,-195,34,-70,845,-492,297,-191,36,-78,837,-482,303,-172,19,-70,850,-494,287,-153,-22,-59,892,-516,230,-172,-95,-65,988,-576,146,-259,-169,-110,1164,-701,70,-424,-267,-213,1411,-836,61,-752,-496,-535,1670,-938,0,-1093,-960,-1102,1783,-937,-100,-1924,-1619,-1991,1665,-1003,-73,-3019,-1787,-2985,1233,-990,-64,-3747,-1240,-3641,448,-948,-85,-4409,-61,-3977,-555,-704,231,-4259,1354,-3376,-1574,-427,969,-3293,1564,-1904,-2047,-509,1243,-1449,-168,-108,-2282,-1314,908,1332,-2470,1822,-2314,-2208,378,3100,-3772,2987,-2225,-2712,-46,3806,-4609,3042,-2262,-2851,-499,4233,-5086,2202,-2076,-2849,-905,3944,-5012,977,-1812,-2604,-1250,3675,-3519,-114,-1646,-2329,-1214,2783,-1651,-773,-1349,-2045,-968,1911,-456,-989,-960,-1726,-830,1159,251,-1170,-691,-1488,-638,522,782,-1239,-454,-1308,-575,9,903,-1345
838,-537,164,74,38,91,830,-544,176,60,12,89,826,-552,172,24,-49,95,818,-560,166,-26,-62,92,817,-579,157,-74,-56,100,814,-590,142,-107,-29,105,808,-600,122,-153,-11,120,783,-608,100,-224,0,128,742,-626,72,-292,-10,185,772,-749,46,-339,77,256,966,-987,11,-386,123,236,1300,-1245,17,-552,44,-210,1746,-1384,50,-834,-419,-1018,1867,-1366,238,-1349,-1094,-2142,1551,-1224,516,-2090,-2365,-3523,1035,-1149,603,-2691,-2905,-4413,329,-1110,257,-3323,-2362,-4975,-776,-1015,-108,-3895,-784,-4784,-2280,-787,84,-4478,640,-3267,-3225,-917,730,-3734,602,-177,-3721,-2147,1191,-1376,-931,2368,-3613,-3888,872,990,-2843,3715,-2671,-4336,403,2447,-4068,4237,-1764,-4149,-149,3407,-4251,3249,-1149,-3773,-433,3145,-3969,1658,-799,-3433,-571,2617,-3165,3,-738,-3201,-707,2084,-2847,-1254,-572,-2696,-988,1461,-1730,-1833,-445,-2277,-870,605,-720,-2134,-323,-1807,-670,257,117,-2085
776,-360,17,33,5,193,758,-378,-23,-36,-158,352,843,-483,-61,-147,-315,557,917,-569,-67,-201,-226,637,938,-654,-77,-260,-296,671,1034,-765,-73,-269,-283,649,1071,-833,-72,-195,-277,574,1270,-988,-65,-151,-495,392,1478,-1010,-165,-44,-698,5,1723,-1016,-249,-365,-1237,-520,1637,-970,-293,-1105,-2019,-1373,1275,-866,-265,-2264,-2755,-2139,922,-908,-302,-3701,-3279,-2993,286,-1211,-436,-4514,-2294,-3544,-1214,-1554,-355,-5037,542,-3496,-2946,-1376,378,-5310,1842,-2073,-3764,-1749,824,-3921,662,1194,-4505,-3012,941,-1827,-1040,3012,-5234,-4795,415,161,-3029,4182,-4517,-5181,252,-490,-4096,4653,-3650,-4955,-308,454,-4794,3066,-2952,-4283,-810,296,-4468,474,-2555,-3519,-867,353,-3355,-1672,-1917,-2636,-805,-98,-2105,-3072,-1432,-1901,-707,-637,-953,-3318,-874,-1401,-462,-732,382,-2917,-465,-1081,-268,-664,1275,-2310,-37,-877,-19,-852,1373,-1542,313,-810,157,-956,1178,-1013,599,-726,244,-934,1070,-614
684,-602,-440,-283,-60,-84,691,-588,-468,-196,-67,-30,703,-593,-486,-136,-123,-26,712,-591,-502,-83,-80,-34,709,-586,-499,-50,-64,-56,704,-579,-499,-19,-33,-50,696,-579,-491,6,-12,-25,693,-577,-493,26,-5,-30,702,-564,-504,4,10,-53,718,-547,-525,-50,78,-87,738,-539,-540,-20,137,-73,792,-556,-573,30,92,-68,890,-631,-646,101,33,-104,1153,-798,-832,76,-10,-358,1523,-1014,-988,5,311,-883,1787,-1269,-1110,-456,682,-2196,1462,-1386,-1028,-1366,1441,-3722,905,-1274,-966,-2055,2318,-4532,21,-888,-1032,-3160,3335,-4653,-1308,-642,-965,-3888,4216,-2794,-2788,-811,-46,-3669,3308,-266,-3442,-1153,-31,-2356,-42,1304,-4217,-2217,-878,-14,-2488,3012,-4635,-2882,-1812,922,-3782,2704,-3627,-3192,-2414,1704,-4614,1203,-2538,-2986,-2609,2642,-4200,-39,-1700,-2972,-2655,2708,-2940,-930,-1293,-2713,-2779,2392,-1977,-1952,-1091,-2127,-2587,2082,-854,-2246,-870,-1652,-2122,1455,17,-2259
922,-181,-38,144,208,-47,960,-238,-46,168,237,58,968,-271,-44,206,262,126,976,-301,-90,183,184,144,949,-304,-125,107,177,145,863,-322,-199,32,29,272,788,-333,-334,-38,-20,569,857,-500,-502,-187,-95,956,1115,-735,-653,-521,-166,892,1431,-1094,-661,-854,-107,421,1666,-1429,-447,-1106,-29,-512,1795,-1503,-162,-1290,-262,-2028,1729,-1348,-78,-1558,-515,-3466,1368,-1229,-90,-1983,-252,-4447,721,-1160,-193,-2489,430,-4959,-109,-1008,-428,-3016,1396,-4750,-1398,-685,-578,-3557,2463,-3569,-2734,-577,-273,-4031,2188,-1930,-3632,-1006,-213,-3126,-514,1044,-4173,-2189,-632,-1529,-2601,2922,-4627,-3490,-1280,-295,-3943,3857,-3969,-4209,-1800,301,-4654,3019,-2993,-4041,-2226,1719,-4930,992,-2252,-3556,-2566,2226,-4082,-584,-1707,-2963,-2587,2219,-2524,-1627,-1337,-2398,-2355,1626,-1150,-1977,-893,-1814,-1982,960,-310,-1852,-530,-1396,-1559,390,513,-1577,-295,-1114,-1156,214,877,-1153,-67,-941,-793,-135,975,-801
885,-361,197,187,69,-53,906,-375,193,198,7,20,902,-371,176,146,-48,138,890,-382,166,96,-65,226,863,-406,145,21,-160,294,876,-449,112,-22,-243,379,875,-482,107,-52,-272,450,879,-518,95,-163,-369,411,867,-549,63,-226,-419,382,867,-610,-20,-381,-477,381,931,-754,-143,-469,-550,374,1078,-940,-274,-577,-528,313,1283,-1060,-348,-704,-625,-115,1680,-1143,-377,-1137,-855,-1096,1855,-1165,-427,-1915,-1190,-2694,1620,-1196,-386,-2951,-1159,-4008,1060,-1241,-320,-3463,-466,-4703,32,-1182,-531,-4037,359,-4779,-1226,-1072,-506,-4449,1472,-3267,-2478,-1002,110,-4098,1272,-669,-3038,-1342,305,-2584,-965,1789,-3230,-2474,-116,2,-2934,3486,-3071,-3097,-318,577,-4048,4324,-2341,-3908,-1093,749,-4767,3848,-1676,-3850,-1624,1813,-4768,2290,-1178,-3285,-2139,2076,-4153,565,-915,-2550,-2256,1645,-2631,-477,-739,-1954,-2098,937,-1344,-1099,-559,-1449,-1783,37,-246,-1440,-338,-1207,-1447,-509,680,-1239
869,-513,142,-34,11,-60,872,-512,152,-25,10,-85,870,-500,151,-20,6,-109,871,-490,145,-16,26,-112,876,-490,144,-19,48,-82,886,-495,142,-10,67,-67,885,-485,141,11,67,-52,887,-475,133,2,27,-39,889,-472,124,3,14,-30,862,-453,110,-23,-37,-11,860,-469,53,-44,-111,52,931,-569,-102,-112,-328,124,1178,-760,-367,-321,-598,35,1514,-986,-498,-585,-613,-95,1893,-1300,-373,-1117,-587,-773,1977,-1466,-61,-2038,-845,-2514,1600,-1633,226,-2565,-601,-3809,800,-1582,269,-2636,-43,-4642,-269,-1152,-38,-3077,758,-4981,-1518,-639,-137,-3645,1912,-3938,-2691,-405,302,-3581,1584,-1257,-3201,-782,279,-2460,-637,1436,-3504,-1949,-230,-424,-2826,3286,-3289,-2718,-653,444,-3985,4183,-2519,-3226,-1150,-14,-4730,3258,-1810,-3220,-1689,1524,-4856,1906,-1207,-2777,-1944,2710,-3669,1004,-802,-2526,-1983,2637,-2396,104,-447,-2264,-2002,2318,-1190,-240,-190,-1998,-1882,1585,-526,-862,19,-1542,-1631,966,48,-1147
866,-517,144,-8,7,9,859,-517,151,-12,1,8,861,-522,162,-2,12,17,864,-528,171,0,2,7,858,-519,171,8,-10,-13,840,-507,157,-2,-38,-19,824,-499,130,-23,-82,13,796,-505,84,-57,-144,86,778,-533,-3,-148,-248,205,765,-598,-100,-182,-337,373,730,-705,-197,-263,-386,599,711,-877,-228,-372,-420,804,896,-1238,-235,-479,-543,746,1401,-1492,-277,-541,-666,105,1882,-1644,-211,-880,-773,-1451,1742,-1623,-138,-2054,-1320,-3282,1236,-1743,27,-2975,-1087,-4269,471,-1618,-149,-3870,-539,-4903,-656,-1417,-380,-4441,1087,-4382,-2221,-858,74,-4381,2270,-2602,-2997,-681,497,-3229,490,94,-3279,-1398,173,-1124,-1831,2522,-3209,-2465,-195,397,-3315,3808,-2438,-2979,-367,114,-4328,3983,-1760,-3372,-784,1334,-4858,3399,-1148,-3154,-1311,1832,-4413,2013,-739,-2885,-1671,2050,-3328,828,-571,-2355,-1758,1723,-2034,11,-405,-1875,-1642,948,-917,-457,-279,-1525,-1373,830,10,-636,-119,-1209,-1087,582,546,-741
824,-606,133,-48,24,-26,818,-594,131,-61,21,-34,817,-592,125,-107,26,-8,812,-592,109,-124,14,21,809,-599,87,-126,-2,51,815,-616,70,-88,-26,83,817,-623,65,-46,-26,73,820,-623,69,-32,-19,49,818,-623,85,-18,14,31,807,-617,103,5,17,16,785,-604,93,-8,-19,-19,760,-611,60,-16,-55,-38,766,-654,-11,8,-193,-44,808,-774,-137,129,-297,-42,977,-1008,-198,262,-351,-79,1396,-1217,-195,158,-591,-534,1772,-1162,-151,-302,-1144,-1435,1828,-913,-118,-1288,-1921,-2769,1636,-835,-16,-2437,-2044,-3844,1105,-837,4,-3443,-1287,-4627,103,-776,-189,-4076,24,-4640,-1351,-532,-35,-4549,1502,-3220,-2424,-566,622,-3816,937,-542,-3130,-1362,617,-1535,-1578,2150,-3713,-2919,96,1206,-3361,3692,-3154,-3680,-617,1736,-4305,3759,-2222,-3804,-1377,2735,-4692,2323,-1395,-3400,-2058,3144,-3659,717,-826,-2976,-2184,2657,-1793,-498,-546,-2494,-1884,2349,-351,-1442,-235,-1853,-1532,1724,432,-1711
839,-476,314,-77,-26,18,849,-471,322,-97,-10,1,852,-465,318,-154,-43,-53,860,-458,289,-166,-65,-63,857,-444,254,-153,0,-40,838,-446,230,-204,-1,-7,833,-487,207,-230,12,83,813,-520,189,-231,-83,173,821,-566,133,-291,-221,236,809,-616,89,-336,-300,308,834,-681,-12,-470,-416,301,979,-836,-168,-589,-508,351,1296,-1116,-307,-647,-390,266,1750,-1388,-483,-1429,-734,-769,1918,-1583,-614,-2623,-691,-2243,1407,-1752,-434,-3359,411,-3526,465,-1633,-312,-3669,1381,-4366,-641,-1298,-208,-4240,2162,-4344,-1806,-1183,773,-3801,2383,-2483,-2486,-1448,1277,-945,-322,716,-2736,-2287,651,1674,-2486,2726,-2110,-3166,-458,3160,-3867,3774,-1147,-3443,-913,2489,-3867,3226,-433,-3212,-1724,3021,-3173,1836,-140,-2502,-1981,2769,-1884,765,48,-1925,-1782,1670,-597,-19,158,-1529,-1374,1144,345,-442,303,-1202,-964,741,922,-870,401,-964,-654,579,1163,-1016,518,-772,-474,479,1074,-950
884,-526,191,-156,205,-161,869,-527,222,-178,341,-242,872,-518,227,-130,348,-218,858,-501,230,-106,317,-196,841,-482,234,-105,197,-137,826,-463,229,-119,80,-57,818,-467,227,-171,-26,8,819,-485,216,-189,-75,58,827,-498,206,-189,-87,105,835,-517,190,-196,-108,115,827,-525,159,-247,-171,85,818,-543,108,-301,-246,62,809,-567,39,-314,-261,80,802,-598,-70,-350,-341,106,815,-662,-250,-475,-390,110,992,-893,-381,-429,-452,317,1290,-1152,-380,-437,-546,174,1714,-1352,-362,-807,-841,-513,1997,-1390,-445,-1922,-1690,-2125,1859,-1526,-421,-3546,-1704,-3646,1150,-1674,-320,-4175,-351,-4334,-239,-1559,-465,-4805,1303,-4615,-1793,-1237,91,-4947,2494,-3317,-2872,-1102,881,-3289,951,-32,-3463,-1936,927,-499,-1615,2278,-3554,-3278,402,1940,-3383,3722,-2873,-3672,-133,2225,-4318,3596,-2147,-3758,-998,2939,-4630,2096,-1508,-3291,-1569,3073,-3635,774,-987,-2834,-1758,2556,-1995,-356
787,-640,87,-19,-14,0,789,-645,87,-20,-8,-2,786,-644,89,-16,1,-9,780,-644,89,-13,0,-10,781,-646,88,-5,4,-4,782,-645,85,1,5,0,786,-642,84,4,5,1,784,-640,85,0,1,0,786,-642,87,-3,-1,-1,786,-640,89,4,5,0,783,-641,90,0,-6,0,787,-643,86,4,-2,1,786,-639,86,3,-2,1,780,-635,82,-3,-2,2,744,-640,59,-7,-23,23,710,-679,-29,39,-150,162,818,-876,-306,-15,-513,462,1289,-1325,-653,-446,-621,293,1993,-1880,-922,-1623,-400,-1045,1749,-2482,-778,-3080,666,-3020,635,-2445,-610,-3777,1845,-4112,-1589,-2271,438,-4233,3110,-3947,-3246,-2581,1953,-979,518,-490,-3731,-3778,620,1917,-2169,2161,-2678,-3994,-493,3249,-3346,2503,-1493,-3719,-1559,3281,-2957,1584,-731,-3113,-1930,2799,-1442,672,-264,-2370,-1796,2129,179,-173,-59,-1775,-1380,1346,1244,-843,188,-1326,-981,758,1717,-1229
893,-485,33,-55,8,-34,903,-485,35,-53,27,-22,901,-487,46,-44,48,-23,892,-486,57,-35,53,-28,883,-487,65,-19,49,-17,881,-489,68,-5,26,-6,879,-483,64,10,-2,9,874,-477,53,20,-33,37,863,-481,42,41,-73,97,882,-521,-5,90,-215,198,1047,-666,-157,141,-533,368,1563,-1055,-487,-226,-740,-111,1937,-1262,-866,-1258,-553,-1506,1717,-1458,-993,-2840,631,-3290,887,-1515,-733,-3637,1844,-4234,-395,-1463,-157,-4013,2509,-4342,-1767,-1586,1226,-2443,1171,-2052,-2619,-2142,935,909,-1748,1213,-2171,-2885,-172,2954,-3458,2917,-1275,-3023,-875,3144,-3844,2743,-492,-2737,-1528,3241,-2912,1811,-120,-2288,-1599,2727,-1672,1025,217,-1852,-1510,1924,-365,155,364,-1483,-1209,1308,640,-352,447,-1160,-841,770,1358,-819,520,-956,-559,426,1407,-949,625,-766,-345,155,1149,-887,749,-661,-249,-109,900,-787,799,-615,-96,-94,717,-557,834,-585,-31,-75,518,-408
923,-334,219,-175,28,-127,929,-318,201,-172,-36,-114,949,-321,170,-149,-44,-70,952,-313,154,-155,-44,-46,974,-322,119,-142,-40,-17,974,-317,95,-85,14,24,964,-323,87,-54,17,86,955,-347,71,-42,13,172,975,-399,45,-3,-99,324,1084,-476,-63,-149,-271,340,1410,-704,-344,-454,-360,46,1709,-863,-668,-1016,-280,-907,1776,-1014,-927,-2194,101,-2097,1362,-1202,-818,-3144,1293,-2876,612,-1280,-566,-3644,2385,-3413,-612,-1460,-22,-4109,3495,-3386,-1663,-1350,1125,-2638,2164,-2203,-2208,-1393,1118,-209,-995,21,-2668,-2383,605,2136,-2889,2121,-2315,-3000,-263,3531,-4107,2400,-1769,-3057,-795,3789,-4572,1915,-1131,-2744,-1524,3394,-3632,871,-668,-2381,-1788,2766,-2083,202,-336,-1985,-1685,1848,-407,-319,12,-1604,-1360,1195,672,-647,196,-1289,-994,686,1304,-924,402,-977,-621,294,1446,-924,473,-815,-374,12,1293,-836,646,-709,-278,-68,1005,-612,689,-638,-182,-164,930,-510
833,-527,208,24,25,56,833,-531,210,11,37,66,821,-531,225,13,29,79,812,-534,230,23,-14,117,816,-558,240,64,-43,135,820,-566,246,112,-37,128,819,-572,237,140,-46,125,812,-567,213,140,2,105,794,-546,206,73,43,108,798,-515,210,72,129,215,820,-508,266,-10,195,536,952,-679,340,-191,-89,944,1280,-1311,538,227,-193,889,1325,-1752,778,179,-914,-382,1000,-1765,710,196,-1874,-2159,550,-1355,446,688,-2118,-3081,-9,-869,170,1590,-1683,-3387,-401,-375,-245,2729,-843,-2542,-605,-13,-745,2115,256,-1217,-711,-74,-1105,50,1611,-248,-1048,-710,-1048,-1772,3372,423,-1149,-1311,97,-2204,4257,607,-855,-1505,1209,-2167,3527,256,-429,-1385,1510,-1599,2367,157,-162,-1185,1465,-1249,1483,-44,15,-1012,1318,-853,778,-126,75,-903,1229,-678,288,-268,153,-826,1083,-339,-178,-279,212,-736,941,-170,-433,-369,272,-666,822,-77,-634,-444
773,-565,382,-57,28,-20,762,-537,381,-109,-23,-74,755,-523,379,-95,-16,-26,784,-551,370,-7,31,99,831,-610,355,65,31,214,856,-661,347,-47,-71,108,817,-648,355,-140,-185,-62,783,-625,348,-203,-292,-105,779,-663,333,-272,-467,-13,897,-871,286,-311,-855,87,1181,-1177,132,-272,-1219,-421,1405,-1299,-57,-869,-1564,-1733,1308,-1395,-115,-2154,-1299,-3438,807,-1362,-28,-3004,-423,-4362,-187,-1000,49,-3595,337,-4892,-1387,-809,542,-4100,1464,-3999,-2173,-528,1160,-2518,441,-1387,-2365,-881,848,-92,-1650,1615,-2411,-1929,505,2174,-3132,3264,-1734,-2592,-205,2590,-4236,3807,-1138,-2683,-705,2229,-4272,3347,-583,-2468,-1465,1809,-3939,1769,-292,-2041,-1779,1009,-2698,182,-48,-1533,-1801,676,-981,-445,42,-1193,-1480,407,217,-815,122,-878,-1190,199,786,-1027,235,-674,-1000,81,933,-937,371,-520,-860,-59,921,-822,512,-398,-754,22,999,-603,615,-334,-663,0,1139,-421
983,-140,173,14,-19,47,991,-144,165,15,1,48,1004,-148,159,-8,13,25,1012,-148,162,-33,17,2,1009,-151,164,-53,5,-10,1009,-153,153,-86,0,-24,1002,-144,144,-140,-21,-40,990,-135,148,-184,-35,-42,988,-132,157,-196,-8,-34,985,-131,179,-189,31,-23,982,-126,195,-171,34,-14,990,-129,192,-144,34,0,993,-128,183,-134,23,0,990,-127,159,-190,16,-27,986,-134,160,-190,37,-11,988,-139,168,-191,35,-1,993,-143,177,-157,38,-30,992,-136,177,-142,25,-75,999,-139,173,-103,36,-50,1007,-142,172,-139,32,-109,998,-140,160,-224,27,-145,1023,-102,141,-421,29,-338,1014,-108,146,-559,94,-271,1014,-84,126,-504,61,-91,1041,-101,132,-386,-54,63,1104,-91,66,-323,-209,141,1248,-157,-16,-436,-302,0,1438,-210,-109,-487,-374,-212,1809,-314,-398,-741,-484,-810,1897,-490,-672,-1423,294,-1773
924,-404,131,-43,113,-44,919,-396,143,-36,89,-34,921,-391,139,-42,53,-25,919,-391,146,-46,53,-15,923,-397,149,-40,30,0,927,-400,151,-34,33,0,928,-397,149,-28,6,5,930,-398,142,-29,2,3,929,-397,140,-37,0,2,930,-402,141,-40,4,3,929,-401,140,-39,1,-2,926,-398,135,-40,0,0,927,-401,120,-45,-16,17,966,-421,75,-60,-8,33,1014,-447,23,-99,7,31,1152,-543,-66,-252,-47,-24,1322,-696,-123,-524,-196,-220,1648,-875,-345,-1014,-462,-984,1745,-961,-634,-1937,141,-2193,1260,-1083,-562,-3026,1505,-3500,230,-1137,-308,-3661,2687,-4126,-1126,-1284,844,-3388,2930,-3504,-1957,-1496,1351,-683,-14,-995,-2462,-2376,700,2085,-2472,1816,-1966,-2809,-190,3449,-3870,2884,-1339,-2877,-700,3516,-4118,2335,-731,-2634,-1577,3390,-3260,1128,-279,-2246,-1864,2629,-1738,355,69,-1862,-1697,1745,-103,-426,238,-1501,-1311,1066,939,-1035
933,-352,19,36,-11,234,952,-379,5,65,-78,278,990,-411,-1,84,-222,307,1079,-475,-64,156,-379,310,1275,-660,-180,155,-582,126,1558,-899,-458,-105,-747,-563,1694,-1061,-762,-934,-252,-1674,1327,-1064,-615,-1877,1012,-3081,701,-822,-411,-2377,1923,-3823,-148,-688,-61,-2700,2806,-3791,-986,-506,774,-2110,2638,-2867,-1692,-465,1242,-601,-165,-1247,-2284,-900,908,1575,-2391,412,-2503,-1736,-23,3356,-3824,1836,-2209,-1849,-605,3316,-4582,1760,-2032,-1832,-1005,2629,-4930,1105,-1923,-1654,-1508,2558,-4266,94,-1607,-1417,-1744,1834,-2770,-356,-1267,-1298,-1615,1227,-991,-699,-1011,-1092,-1382,909,101,-952,-705,-925,-1193,452,910,-949,-494,-811,-1008,257,1374,-840,-238,-756,-891,35,1636,-808,-71,-733,-794,146,1774,-776,136,-707,-722,328,1844,-846,299,-675,-639,416,1901,-843,400,-646,-501,385,1915,-692,507,-656,-336,196,1518,-548,624,-666,-281,144,1144,-492,678,-631,-210,168,914,-358,735,-603,-173,148,712,-282
817,-440,-100,-226,-260,96,829,-447,-156,-169,-345,118,829,-392,-231,-343,-398,122,820,-352,-256,-472,-396,184,861,-349,-351,-460,-556,353,991,-409,-573,-257,-766,499,1381,-798,-1222,-286,-590,415,1642,-1331,-1621,-1272,-147,-433,1487,-1563,-1677,-1966,874,-1465,984,-1546,-1376,-2254,1877,-2051,257,-1203,-875,-2217,2724,-2339,-381,-804,-338,-2297,2978,-2308,-1039,-528,480,-1851,2312,-1747,-1491,-423,978,-565,404,-783,-1712,-584,866,881,-1512,137,-1725,-971,203,1561,-3302,561,-1355,-1153,-887,2206,-4178,687,-729,-769,-2467,2257,-3688,611,-173,-485,-2777,1880,-2177,717,154,-421,-2334,1236,-1084,557,257,-358,-1932,912,-616,356,312,-304,-1635,574,-267,131,297,-278,-1405,452,98,23,285,-274,-1211,384,435,-39,307,-268,-1065,301,590,-42,368,-242,-921,357,699,-5,438,-244,-844,365,596,-7,528,-255,-830,449,510,34,571,-278,-799,427,484,56,599,-317,-772,425,455,83
775,-576,-443,76,2,104,796,-572,-463,81,-26,89,805,-603,-492,34,-75,42,827,-626,-582,77,-86,50,876,-651,-751,-164,-180,6,998,-769,-1147,-520,-160,-135,1158,-1011,-1636,-1085,736,-456,1071,-1359,-1629,-1735,2075,-1020,607,-1434,-1217,-1904,3439,-1740,53,-1235,-705,-1950,3956,-2197,-588,-1031,-171,-1948,4203,-2342,-1296,-726,551,-1317,3628,-1983,-1753,-484,900,-507,1218,-1066,-2096,-689,772,866,-1653,805,-2292,-1375,226,2586,-3283,2519,-2044,-1910,-504,3382,-4244,3420,-1782,-2219,-1030,2060,-4567,3173,-1129,-2404,-1702,1949,-3876,2216,-643,-2177,-1828,1726,-2557,1286,-308,-1849,-1671,1230,-1273,514,-113,-1544,-1384,897,-368,76,18,-1271,-1046,430,313,-265,79,-1114,-773,83,651,-426,150,-997,-564,-272,609,-530,265,-933,-499,-318,451,-530,357,-889,-506,-176,473,-477,411,-854,-463,-36,547,-388,451,-848,-429,45,547,-344,452,-811,-369,179,559,-282,445,-766,-317,301,443,-211
639,-744,-275,-234,-75,55,630,-702,-273,-194,-130,41,630,-697,-297,-230,-205,63,621,-689,-324,-240,-273,112,610,-691,-335,-233,-414,182,599,-771,-407,-339,-913,455,709,-1039,-585,-434,-1408,385,939,-1442,-1090,-625,-1453,-259,954,-1664,-1381,-1058,-645,-1108,700,-1623,-1455,-1736,692,-2324,262,-1310,-1220,-2204,1865,-3008,-100,-870,-932,-2168,2398,-3160,-434,-417,-603,-2411,2551,-2953,-796,-183,-213,-2415,2617,-2481,-1337,-82,622,-1644,1379,-1434,-1815,-314,705,-17,-1315,-88,-2102,-766,-354,1941,-3212,1387,-1655,-729,-1481,1970,-3749,1601,-1143,-882,-1753,1819,-3606,1635,-743,-940,-2166,2025,-3112,1206,-379,-915,-2238,1621,-1676,764,-200,-772,-1967,1405,-561,358,-89,-665,-1640,1059,194,83,14,-611,-1362,871,629,-106,53,-570,-1163,722,782,-250,157,-529,-1030,781,879,-326,201,-510,-884,695,876,-358,282,-560,-823,681,767,-341,320,-542,-758,679,744,-316,387,-559,-710,531,624,-286
926,-345,34,-27,-49,43,903,-340,16,-35,-97,107,851,-337,-2,-24,-172,229,802,-388,-53,-33,-324,485,744,-494,-134,40,-499,789,798,-709,-421,-15,-807,1141,926,-1045,-724,-377,-668,1149,1093,-1530,-841,-956,-239,844,1301,-1943,-853,-2026,78,-167,1147,-2193,-662,-3070,995,-1780,591,-2119,-362,-3165,2152,-3270,-209,-1710,-231,-3246,3011,-4336,-1076,-1180,-41,-2957,3912,-4635,-1853,-516,445,-2428,3604,-3628,-2369,36,635,-1564,1925,-1415,-2784,-100,955,-535,-341,1116,-3395,-1579,418,1748,-2658,3104,-3323,-2387,-241,3032,-3884,3989,-2658,-2759,-674,3169,-4669,3594,-2056,-2714,-1213,3136,-4508,2378,-1406,-2391,-1553,2538,-3120,984,-1029,-2037,-1557,1864,-1617,-160,-760,-1651,-1303,1286,-129,-1146,-520,-1405,-1039,928,689,-1667,-261,-1194,-816,550,1212,-1935,4,-1067,-675,117,1393,-1905,199,-957,-542,85,1455,-1665,385,-824,-455,-47,1295,-1387,525,-734,-353,-137,1151,-1086,634,-662,-255,-28,1107,-752
